File: example/MoS2 Ext - Nat Comm.csv
Fraction 1,,Fraction 2,,Fraction 3,,Fraction 4,,Fraction 5,,Fraction 6,,Fraction 7,,Fraction 8,,Fraction 9,
Wavelength (nm),Ext,Wavelength (nm),Ext,Wavelength (nm),Ext,Wavelength (nm),Ext,Wavelength (nm),Ext,Wavelength (nm),Ext,Wavelength (nm),Ext,Wavelength (nm),Ext,Wavelength (nm),Ext
1000,-0.02823,1000,-0.04191,1000,-0.06922,1000,-0.09472,1000,-0.12666,1000,-0.25143,1000,-0.47176,1000,-0.5639,1000,0.27981
998,-0.02919,998,-0.04296,998,-0.07117,998,-0.09725,998,-0.13025,998,-0.25831,998,-0.48571,998,-0.58018,998,0.28152
996,-0.02963,996,-0.04388,996,-0.07253,996,-0.09931,996,-0.13263,996,-0.26421,996,-0.49737,996,-0.59472,996,0.28338
994,-0.03005,994,-0.04464,994,-0.07394,994,-0.10113,994,-0.13522,994,-0.26998,994,-0.50917,994,-0.60823,994,0.28539
992,-0.03057,992,-0.04535,992,-0.07516,992,-0.10282,992,-0.13785,992,-0.27544,992,-0.52025,992,-0.62158,992,0.28741
990,-0.03087,990,-0.04578,990,-0.0762,990,-0.10434,990,-0.13963,990,-0.27981,990,-0.52931,990,-0.63238,990,0.28957
988,-0.03121,988,-0.04624,988,-0.07723,988,-0.10568,988,-0.14154,988,-0.28416,988,-0.53858,988,-0.6438,988,0.29173
986,-0.03156,986,-0.04665,986,-0.07815,986,-0.10697,986,-0.14307,986,-0.2875,986,-0.54677,986,-0.65357,986,0.29407
984,-0.03164,984,-0.04704,984,-0.07873,984,-0.10774,984,-0.14467,984,-0.29089,984,-0.55321,984,-0.66172,984,0.29637
982,-0.03181,982,-0.0474,982,-0.07929,982,-0.10847,982,-0.14543,982,-0.29309,982,-0.55898,982,-0.66842,982,0.2987
980,-0.03163,980,-0.04728,980,-0.07926,980,-0.10867,980,-0.1457,980,-0.29434,980,-0.56236,980,-0.67288,980,0.30151
978,-0.03157,978,-0.04708,978,-0.07919,978,-0.10851,978,-0.14563,978,-0.29491,978,-0.56463,978,-0.6762,978,0.30428
976,-0.03115,976,-0.04676,976,-0.07878,976,-0.10791,976,-0.14486,976,-0.2941,976,-0.56499,976,-0.67599,976,0.30727
974,-0.0306,974,-0.04619,974,-0.07817,974,-0.10694,974,-0.14349,974,-0.29243,974,-0.56334,974,-0.67475,974,0.31024
972,-0.02988,972,-0.04534,972,-0.07706,972,-0.10571,972,-0.14166,972,-0.28978,972,-0.55978,972,-0.67055,972,0.31348
970,-0.02933,970,-0.04462,970,-0.07595,970,-0.10437,970,-0.13957,970,-0.28634,970,-0.55494,970,-0.66597,970,0.31688
968,-0.02827,968,-0.04329,968,-0.07427,968,-0.10215,968,-0.1368,968,-0.28156,968,-0.54848,968,-0.65861,968,0.32034
966,-0.02732,966,-0.04204,966,-0.07256,966,-0.0998,966,-0.13357,966,-0.2765,966,-0.54092,966,-0.64972,966,0.32393
964,-0.02641,964,-0.04088,964,-0.07056,964,-0.09721,964,-0.13032,964,-0.27042,964,-0.53164,964,-0.63903,964,0.32756
962,-0.02518,962,-0.03918,962,-0.06813,962,-0.09392,962,-0.12573,962,-0.26257,962,-0.519,962,-0.62434,962,0.3314
960,-0.02359,960,-0.03706,960,-0.06488,960,-0.08965,960,-0.11971,960,-0.25195,960,-0.50073,960,-0.60298,960,0.33564
958,-0.02196,958,-0.03467,958,-0.06092,958,-0.08424,958,-0.1124,958,-0.23746,958,-0.47537,958,-0.57337,958,0.33996
956,-0.0198,956,-0.03179,956,-0.05574,956,-0.07725,956,-0.10274,956,-0.21798,956,-0.43856,956,-0.53009,956,0.34469
954,-0.01772,954,-0.02874,954,-0.05023,954,-0.06964,954,-0.09232,954,-0.19533,954,-0.39432,954,-0.47692,954,0.3498
952,-0.01589,952,-0.02594,952,-0.04514,952,-0.06247,952,-0.08193,952,-0.17266,952,-0.34663,952,-0.41994,952,0.35436
950,-0.01447,950,-0.02372,950,-0.04051,950,-0.056,950,-0.07284,950,-0.15126,950,-0.29965,950,-0.36451,950,0.35885
948,-0.01288,948,-0.02157,948,-0.03635,948,-0.05014,948,-0.06506,948,-0.13244,948,-0.25929,948,-0.31524,948,0.36321
946,-0.01151,946,-0.01944,946,-0.03267,946,-0.04501,946,-0.05747,946,-0.11597,946,-0.22549,946,-0.27487,946,0.36747
944,-0.00994,944,-0.01719,944,-0.02892,944,-0.03973,944,-0.05016,944,-0.10086,944,-0.19493,944,-0.23881,944,0.37202
942,-0.00859,942,-0.01519,942,-0.02529,942,-0.03479,942,-0.04357,942,-0.08696,942,-0.16848,942,-0.20817,942,0.3765
940,-0.00672,940,-0.01287,940,-0.02155,940,-0.02983,940,-0.03649,940,-0.07364,940,-0.14395,940,-0.17867,940,0.38103
938,-0.00506,938,-0.01056,938,-0.01813,938,-0.02532,938,-0.03026,938,-0.06094,938,-0.12129,938,-0.15174,938,0.38561
936,-0.00385,936,-0.00869,936,-0.01496,936,-0.02109,936,-0.02438,936,-0.04991,936,-0.10069,936,-0.12793,936,0.38996
934,-0.00232,934,-0.00674,934,-0.01189,934,-0.0169,934,-0.0185,934,-0.03861,934,-0.08084,934,-0.10455,934,0.39441
932,-0.00134,932,-0.00536,932,-0.00936,932,-0.01327,932,-0.01372,932,-0.02883,932,-0.06371,932,-0.08371,932,0.39863
930,-2.34E-04,930,-0.00382,930,-0.00686,930,-0.01005,930,-0.00929,930,-0.01997,930,-0.04695,930,-0.06488,930,0.40287
928,5.86E-04,928,-0.00256,928,-0.00491,928,-0.00729,928,-0.00545,928,-0.01226,928,-0.03273,928,-0.04913,928,0.40683
926,0.00163,926,-0.00139,926,-0.00288,926,-0.00459,926,-0.00162,926,-0.00496,926,-0.0187,926,-0.03193,926,0.41103
924,0.00222,924,-3.09E-04,924,-0.00126,924,-0.00222,924,0.00153,924,0.0012,924,-0.00725,924,-0.01804,924,0.41491
922,0.00297,922,4.22E-04,922,2.02E-04,922,-3.15E-04,922,0.00435,922,0.00696,922,0.00281,922,-0.00546,922,0.41886
920,0.00362,920,0.00123,920,0.00147,920,0.00142,920,0.00662,920,0.01153,920,0.01189,920,0.0041,920,0.42264
918,0.004,918,0.00183,918,0.00237,918,0.00264,918,0.00864,918,0.01544,918,0.01892,918,0.01253,918,0.42631
916,0.00434,916,0.00251,916,0.00329,916,0.0039,916,0.01026,916,0.01895,916,0.02516,916,0.02056,916,0.43035
914,0.00465,914,0.00271,914,0.00403,914,0.00493,914,0.01206,914,0.02222,914,0.03127,914,0.02713,914,0.43404
912,0.0048,912,0.00317,912,0.00477,912,0.00597,912,0.01321,912,0.02483,912,0.03635,912,0.0328,912,0.43785
910,0.00537,910,0.00372,910,0.00549,910,0.00696,910,0.01465,910,0.0273,910,0.04094,910,0.03852,910,0.44174
908,0.00544,908,0.00386,908,0.00608,908,0.00776,908,0.01581,908,0.02964,908,0.04526,908,0.04281,908,0.44552
906,0.00573,906,0.00428,906,0.00655,906,0.00835,906,0.01682,906,0.03187,906,0.04844,906,0.04709,906,0.44938
904,0.006,904,0.0045,904,0.00707,904,0.00933,904,0.01796,904,0.03387,904,0.05221,904,0.0517,904,0.45333
902,0.00642,902,0.00504,902,0.00778,902,0.01008,902,0.01918,902,0.03604,902,0.056,902,0.0552,902,0.4572
900,0.00649,900,0.00526,900,0.00824,900,0.01071,900,0.02022,900,0.03783,900,0.05909,900,0.05956,900,0.46108
898,0.00676,898,0.00553,898,0.0087,898,0.0115,898,0.02128,898,0.04012,898,0.06237,898,0.06304,898,0.46503
896,0.00706,896,0.00602,896,0.00926,896,0.01228,896,0.02226,896,0.04183,896,0.06588,896,0.06716,896,0.46904
894,0.00735,894,0.00633,894,0.00992,894,0.01308,894,0.0236,894,0.04434,894,0.06951,894,0.07153,894,0.47321
892,0.00766,892,0.00657,892,0.01047,892,0.01384,892,0.02462,892,0.04646,892,0.07328,892,0.07514,892,0.47723
890,0.0078,890,0.00676,890,0.01087,890,0.01446,890,0.02546,890,0.04825,890,0.07675,890,0.07904,890,0.48129
888,0.00782,888,0.00704,888,0.01134,888,0.01512,888,0.0265,888,0.05039,888,0.08015,888,0.08285,888,0.48544
886,0.00791,886,0.00681,886,0.01157,886,0.01558,886,0.02723,886,0.05179,886,0.08287,886,0.08691,886,0.48936
884,0.00817,884,0.00737,884,0.01212,884,0.0163,884,0.02836,884,0.05363,884,0.08692,884,0.09122,884,0.49362
882,0.00826,882,0.00734,882,0.01245,882,0.01679,882,0.02907,882,0.05584,882,0.09032,882,0.09502,882,0.49778
880,0.00841,880,0.00766,880,0.01284,880,0.01737,880,0.02994,880,0.0577,880,0.09367,880,0.09913,880,0.50196
878,0.00845,878,0.00773,878,0.01323,878,0.01791,878,0.03094,878,0.05955,878,0.09745,878,0.10304,878,0.50621
876,0.00878,876,0.0082,876,0.01373,876,0.01862,876,0.03173,876,0.06175,876,0.10121,876,0.10807,876,0.51054
874,0.0091,874,0.00849,874,0.0142,874,0.01929,874,0.03299,874,0.06377,874,0.10503,874,0.11226,874,0.51493
872,0.00911,872,0.00874,872,0.01452,872,0.0199,872,0.0338,872,0.06539,872,0.10859,872,0.11595,872,0.51934
870,0.00923,870,0.00872,870,0.01488,870,0.02045,870,0.03446,870,0.06709,870,0.11179,870,0.11975,870,0.52364
868,0.00932,868,0.00879,868,0.01519,868,0.02084,868,0.03515,868,0.06867,868,0.11453,868,0.12312,868,0.5281
866,0.00966,866,0.00912,866,0.01564,866,0.02139,866,0.03628,866,0.07112,866,0.11805,866,0.12736,866,0.53269
864,0.01002,864,0.0094,864,0.01612,864,0.02223,864,0.03736,864,0.07269,864,0.1216,864,0.13168,864,0.53724
862,0.00963,862,0.0096,862,0.01645,862,0.0227,862,0.0381,862,0.07434,862,0.12441,862,0.13511,862,0.54178
860,0.01012,860,0.00972,860,0.01677,860,0.02319,860,0.03894,860,0.07601,860,0.12748,860,0.13796,860,0.54635
858,0.01022,858,0.01009,858,0.01715,858,0.02377,858,0.03984,858,0.07785,858,0.13124,858,0.14188,858,0.55114
856,0.0103,856,0.01008,856,0.01755,856,0.0244,856,0.04073,856,0.07976,856,0.1344,856,0.14543,856,0.55565
854,0.01055,854,0.01017,854,0.01792,854,0.02489,854,0.04157,854,0.08154,854,0.13741,854,0.1493,854,0.56037
852,0.01059,852,0.01018,852,0.01828,852,0.02547,852,0.0424,852,0.08352,852,0.14049,852,0.1533,852,0.56518
850,0.01074,850,0.01069,850,0.01885,850,0.0262,850,0.0434,850,0.08573,850,0.14433,850,0.15743,850,0.57014
848,0.01101,848,0.01084,848,0.01914,848,0.02674,848,0.04438,848,0.08728,848,0.14778,848,0.16118,848,0.57484
846,0.01129,846,0.0109,846,0.01946,846,0.02721,846,0.04528,846,0.08931,846,0.15182,846,0.16529,846,0.57969
844,0.01112,844,0.01105,844,0.01964,844,0.02756,844,0.04574,844,0.09086,844,0.1549,844,0.16913,844,0.58448
842,0.01098,842,0.01089,842,0.01971,842,0.02777,842,0.04637,842,0.09227,842,0.15834,842,0.17326,842,0.58927
840,0.01127,840,0.01101,840,0.01995,840,0.02811,840,0.04698,840,0.0937,840,0.16185,840,0.17699,840,0.59416
838,0.0105,838,0.01083,838,0.02009,838,0.02845,838,0.04752,838,0.09521,838,0.16501,838,0.18097,838,0.59906
836,0.0109,836,0.01108,836,0.02063,836,0.0291,836,0.04872,836,0.09745,836,0.16896,836,0.18504,836,0.60412
834,0.01159,834,0.0116,834,0.0213,834,0.03012,834,0.05021,834,0.10019,834,0.17389,834,0.19055,834,0.60937
832,0.01187,832,0.01199,832,0.02207,832,0.03122,832,0.05183,832,0.10375,832,0.17958,832,0.19752,832,0.61464
830,0.01208,830,0.01239,830,0.02291,830,0.03245,830,0.0535,830,0.10699,830,0.18547,830,0.20481,830,0.62009
828,0.01262,828,0.0131,828,0.02398,828,0.03403,828,0.0559,828,0.11127,828,0.19251,828,0.21256,828,0.62571
826,0.01287,826,0.01354,826,0.02487,826,0.03527,826,0.05788,826,0.11499,826,0.19896,826,0.21985,826,0.63114
824,0.01319,824,0.0141,824,0.02576,824,0.03643,824,0.05947,824,0.11852,824,0.20508,824,0.22652,824,0.63676
822,0.01357,822,0.01455,822,0.02653,822,0.03761,822,0.06138,822,0.12183,822,0.21043,822,0.23256,822,0.64239
820,0.01317,820,0.01478,820,0.02698,820,0.03851,820,0.06246,820,0.12425,820,0.21477,820,0.23794,820,0.64794
818,0.01349,818,0.01465,818,0.02742,818,0.03909,818,0.0636,818,0.12659,818,0.21849,818,0.24247,818,0.65333
816,0.01399,816,0.01505,816,0.0281,816,0.04,816,0.06499,816,0.12899,816,0.22343,816,0.24743,816,0.65916
814,0.01442,814,0.01543,814,0.02868,814,0.04076,814,0.06627,814,0.13198,814,0.22751,814,0.25306,814,0.66486
812,0.01412,812,0.01536,812,0.02891,812,0.04137,812,0.06705,812,0.13354,812,0.23107,812,0.25592,812,0.67047
810,0.0142,810,0.01561,810,0.02937,810,0.04207,810,0.06795,810,0.13534,810,0.2349,810,0.26017,810,0.67608
808,0.01449,808,0.01594,808,0.03,808,0.04296,808,0.06943,808,0.13892,808,0.23952,808,0.26543,808,0.68208
806,0.01456,806,0.01609,806,0.03045,806,0.04361,806,0.07083,806,0.14084,806,0.24355,806,0.26979,806,0.68805
804,0.01479,804,0.01633,804,0.03086,804,0.04424,804,0.07193,804,0.14302,804,0.24727,804,0.27399,804,0.69388
802,0.01482,802,0.01657,802,0.03138,802,0.04506,802,0.07321,802,0.14575,802,0.25159,802,0.27896,802,0.69995
800,0.01472,800,0.01667,800,0.03171,800,0.04563,800,0.07427,800,0.14694,800,0.25308,800,0.28091,800,0.70596
798,-0.00275,798,0.00986,798,0.02746,798,0.03934,798,0.06736,798,0.15061,798,0.25758,798,0.2846,798,0.70239
796,-0.00344,796,0.00937,796,0.02774,796,0.03863,796,0.06765,796,0.15216,796,0.2589,796,0.28764,796,0.70795
794,-0.00306,794,0.00975,794,0.02795,794,0.03923,794,0.0679,794,0.1537,794,0.26352,794,0.29084,794,0.71466
792,-0.00289,792,0.00982,792,0.02818,792,0.0406,792,0.06961,792,0.15686,792,0.2675,792,0.29569,792,0.72062
790,-0.00212,790,0.00976,790,0.02857,790,0.04088,790,0.07096,790,0.15951,790,0.27117,790,0.2996,790,0.72716
788,-0.00295,788,0.01002,788,0.02869,788,0.04126,788,0.07145,788,0.16172,788,0.27502,788,0.30448,788,0.73332
786,-0.00324,786,0.01005,786,0.02911,786,0.04238,786,0.07256,786,0.16328,786,0.28115,786,0.30812,786,0.73963
784,-0.00308,784,0.01018,784,0.02983,784,0.04305,784,0.07455,784,0.16687,784,0.28518,784,0.31478,784,0.74628
782,-0.00317,782,0.01038,782,0.03046,782,0.04315,782,0.0754,782,0.1695,782,0.28795,782,0.31815,782,0.75285
780,-0.00247,780,0.01108,780,0.03102,780,0.04459,780,0.07727,780,0.1723,780,0.29464,780,0.3251,780,0.75942
778,-0.00287,778,0.01064,778,0.03112,778,0.04515,778,0.07848,778,0.17457,778,0.29873,778,0.33025,778,0.76599
776,-0.00224,776,0.0113,776,0.0322,776,0.04656,776,0.0807,776,0.17868,776,0.30432,776,0.3369,776,0.77329
774,-0.0028,774,0.01059,774,0.03237,774,0.04699,774,0.0816,774,0.1813,774,0.30838,774,0.34095,774,0.77988
772,-0.00218,772,0.01194,772,0.03319,772,0.04835,772,0.08355,772,0.18543,772,0.31514,772,0.34746,772,0.78731
770,-0.00238,770,0.01191,770,0.03385,770,0.04927,770,0.08553,770,0.18781,770,0.32147,770,0.35467,770,0.79405
768,-0.00269,768,0.01153,768,0.03426,768,0.05005,768,0.08655,768,0.19074,768,0.32567,768,0.35969,768,0.80081
766,-0.00214,766,0.01202,766,0.03499,766,0.05083,766,0.0889,766,0.19498,766,0.33291,766,0.36781,766,0.8077
764,-0.00237,764,0.01286,764,0.03597,764,0.05185,764,0.09073,764,0.19852,764,0.3389,764,0.37581,764,0.81554
762,-0.00156,762,0.01222,762,0.03654,762,0.0533,762,0.09228,762,0.20237,762,0.34605,762,0.38229,762,0.82245
760,-0.00175,760,0.01272,760,0.03673,760,0.05473,760,0.09451,760,0.20672,760,0.3519,760,0.3893,760,0.83015
758,-0.00228,758,0.01293,758,0.03783,758,0.05558,758,0.0965,758,0.21116,758,0.35941,758,0.39751,758,0.83782
756,-0.00148,756,0.01286,756,0.03846,756,0.05697,756,0.09838,756,0.2154,756,0.36621,756,0.4056,756,0.84543
754,-0.00106,754,0.01382,754,0.03947,754,0.05844,754,0.10142,754,0.22018,754,0.37543,754,0.41489,754,0.85286
752,-0.00121,752,0.01428,752,0.04043,752,0.05956,752,0.10293,752,0.22453,752,0.38299,752,0.42265,752,0.86097
750,-5.09E-04,750,0.01477,750,0.04148,750,0.06184,750,0.10605,750,0.22981,750,0.39233,750,0.4339,750,0.8688
748,-7.36E-04,748,0.0151,748,0.04238,748,0.06302,748,0.10842,748,0.23549,748,0.40013,748,0.44276,748,0.87689
746,-8.49E-04,746,0.01522,746,0.04321,746,0.06407,746,0.11051,746,0.23984,746,0.40729,746,0.45211,746,0.88477
744,-6.02E-04,744,0.01572,744,0.04459,744,0.06605,744,0.11322,744,0.24586,744,0.41741,744,0.46144,744,0.89327
742,-4.50E-04,742,0.01624,742,0.04551,742,0.06747,742,0.11577,742,0.25084,742,0.42654,742,0.47144,742,0.9014
740,6.44E-04,740,0.01733,740,0.04712,740,0.06996,740,0.11992,740,0.25791,740,0.43833,740,0.48597,740,0.91034
738,0.00111,738,0.01739,738,0.04816,738,0.07184,738,0.12279,738,0.26407,738,0.44806,738,0.49697,738,0.91907
736,0.00112,736,0.01813,736,0.04948,736,0.07368,736,0.1262,736,0.27055,736,0.4599,736,0.50943,736,0.92751
734,0.0019,734,0.01895,734,0.05119,734,0.07641,734,0.13037,734,0.27852,734,0.47308,734,0.52486,734,0.93649
732,0.002,732,0.01959,732,0.05306,732,0.07895,732,0.13455,732,0.28741,732,0.48693,732,0.54089,732,0.94586
730,0.00279,730,0.02072,730,0.05482,730,0.08188,730,0.13883,730,0.29586,730,0.50169,730,0.55664,730,0.95513
728,0.00284,728,0.02127,728,0.05643,728,0.08443,728,0.14244,728,0.30456,728,0.51661,728,0.57327,728,0.96434
726,0.00337,726,0.02258,726,0.05845,726,0.08737,726,0.1479,726,0.31352,726,0.53223,726,0.59019,726,0.97414
724,0.00453,724,0.02332,724,0.06042,724,0.0903,724,0.15222,724,0.32247,724,0.54887,724,0.60748,724,0.98379
722,0.00483,722,0.02407,722,0.06241,722,0.09338,722,0.15692,722,0.33275,722,0.56267,722,0.62525,722,0.99392
720,0.00603,720,0.02567,720,0.06504,720,0.09693,720,0.16225,720,0.34326,720,0.5807,720,0.64453,720,1.00415
718,0.00711,718,0.02672,718,0.06723,718,0.10042,718,0.16788,718,0.35447,718,0.5973,718,0.6637,718,1.01445
716,0.00787,716,0.02807,716,0.06985,716,0.10393,716,0.17373,716,0.36549,716,0.61545,716,0.683,716,1.02522
714,0.00862,714,0.02943,714,0.07248,714,0.1081,714,0.17981,714,0.37713,714,0.63383,714,0.70268,714,1.03584
712,0.00919,712,0.03033,712,0.07518,712,0.11177,712,0.18593,712,0.38918,712,0.65263,712,0.7234,712,1.04662
710,0.01075,710,0.03188,710,0.07831,710,0.11655,710,0.19328,710,0.4029,710,0.6735,710,0.7469,710,1.05804
708,0.01203,708,0.03423,708,0.08187,708,0.12174,708,0.2011,708,0.41676,708,0.69481,708,0.77124,708,1.06932
706,0.0135,706,0.03612,706,0.08556,706,0.12709,706,0.2093,706,0.43256,706,0.71759,706,0.7966,706,1.08105
704,0.01473,704,0.03829,704,0.09004,704,0.13314,704,0.21909,704,0.44939,704,0.74307,704,0.82401,704,1.0928
702,0.01734,702,0.04107,702,0.09479,702,0.14039,702,0.22932,702,0.46852,702,0.76997,702,0.85379,702,1.10494
700,0.01892,700,0.04373,700,0.09995,700,0.14722,700,0.24003,700,0.48818,700,0.79745,700,0.88258,700,1.11682
698,0.02155,698,0.04764,698,0.10602,698,0.15674,698,0.25278,698,0.51018,698,0.82718,698,0.9166,698,1.12925
696,0.0245,696,0.05174,696,0.11286,696,0.16583,696,0.26656,696,0.53489,696,0.85959,696,0.95054,696,1.14114
694,0.02758,694,0.05613,694,0.12075,694,0.17681,694,0.28274,694,0.56236,694,0.89371,694,0.98775,694,1.15301
692,0.03135,692,0.06167,692,0.13026,692,0.18966,692,0.30109,692,0.59302,692,0.93035,692,1.02591,692,1.1649
690,0.03586,690,0.06797,690,0.14097,690,0.20439,690,0.32235,690,0.6269,690,0.96749,690,1.0647,690,1.17593
688,0.04109,688,0.07596,688,0.15344,688,0.22147,688,0.34588,688,0.66429,688,1.00622,688,1.10327,688,1.18576
686,0.0474,686,0.08494,686,0.16867,686,0.24194,686,0.37312,686,0.70549,686,1.04414,686,1.14116,686,1.19413
684,0.05446,684,0.09511,684,0.18571,684,0.26522,684,0.40379,684,0.74993,684,1.08038,684,1.17362,684,1.19997
682,0.06267,682,0.10756,682,0.20561,682,0.29179,682,0.43797,682,0.7957,682,1.11102,682,1.19918,682,1.20338
680,0.07201,680,0.12156,680,0.22788,680,0.32052,680,0.47324,680,0.83749,680,1.13105,680,1.21409,680,1.20267
678,0.08299,678,0.13738,678,0.25158,678,0.3503,678,0.50826,678,0.87363,678,1.14209,678,1.21745,678,1.19784
676,0.09471,676,0.15389,676,0.27528,676,0.37978,676,0.5398,676,0.89965,676,1.14132,676,1.21034,676,1.18896
674,0.10662,674,0.17034,674,0.29699,674,0.4048,674,0.56443,674,0.91163,674,1.12958,674,1.19172,674,1.17618
672,0.11925,672,0.18622,672,0.31532,672,0.42417,672,0.57995,672,0.91176,672,1.11068,672,1.16819,672,1.15999
670,0.13106,670,0.19965,670,0.32866,670,0.43669,670,0.58695,670,0.90163,670,1.08607,670,1.13944,670,1.14242
668,0.14282,668,0.2111,668,0.33756,668,0.44286,668,0.58652,668,0.88551,668,1.06203,668,1.11359,668,1.12506
666,0.15231,666,0.21933,666,0.34178,666,0.44266,666,0.58039,666,0.86573,666,1.0373,666,1.08753,666,1.10918
664,0.1599,664,0.22379,664,0.34133,664,0.43842,664,0.57044,664,0.84513,664,1.0148,664,1.06345,664,1.09502
662,0.1648,662,0.22511,662,0.33756,662,0.43114,662,0.55866,662,0.82587,662,0.99519,662,1.0452,662,1.08396
660,0.16694,660,0.22373,660,0.33181,660,0.42205,660,0.54633,660,0.80897,660,0.98032,660,1.0308,660,1.07584
658,0.16706,658,0.22025,658,0.3253,658,0.4128,658,0.53546,658,0.79583,658,0.9703,658,1.02148,658,1.0703
656,0.16549,656,0.21596,656,0.31868,656,0.40478,656,0.52587,656,0.78576,656,0.96408,656,1.01492,656,1.06765
654,0.16383,654,0.21216,654,0.31328,654,0.39809,654,0.51857,654,0.77961,654,0.96136,654,1.0136,654,1.06723
652,0.16155,652,0.20859,652,0.30883,652,0.39297,652,0.51364,652,0.77616,652,0.9606,652,1.01478,652,1.0691
650,0.15952,650,0.20569,650,0.30564,650,0.38944,650,0.51098,650,0.77629,650,0.96452,650,1.01923,650,1.07295
648,0.15832,648,0.20406,648,0.30414,648,0.38838,648,0.51096,648,0.78018,648,0.97269,648,1.02846,648,1.07855
646,0.15743,646,0.20292,646,0.3037,646,0.38875,646,0.51302,646,0.78647,646,0.98156,646,1.03722,646,1.08499
644,0.15746,644,0.2035,644,0.30502,644,0.39147,644,0.51779,644,0.79602,644,0.99362,644,1.05081,644,1.09203
642,0.15811,642,0.20463,642,0.30773,642,0.3954,642,0.52439,642,0.80737,642,1.00651,642,1.06449,642,1.09934
640,0.1598,640,0.2068,640,0.31169,640,0.40091,640,0.53225,640,0.82066,640,1.02057,640,1.07804,640,1.10663
638,0.1622,638,0.21009,638,0.3167,638,0.40804,638,0.54218,638,0.83538,638,1.03507,638,1.09209,638,1.11406
636,0.16567,636,0.21425,636,0.32322,636,0.41618,636,0.55355,636,0.85211,636,1.04996,636,1.10755,636,1.12091
634,0.16865,634,0.21842,634,0.33025,634,0.42608,634,0.56587,634,0.8686,634,1.06417,634,1.11984,634,1.1271
632,0.17354,632,0.22425,632,0.33859,632,0.43647,632,0.57949,632,0.8867,632,1.07837,632,1.13416,632,1.13275
630,0.17938,630,0.23087,630,0.34792,630,0.44853,630,0.59405,630,0.9048,630,1.09188,630,1.14569,630,1.13795
628,0.18532,628,0.23805,628,0.3582,628,0.46136,628,0.60961,628,0.92282,628,1.10412,628,1.1566,628,1.14233
626,0.19227,626,0.24632,626,0.36964,626,0.47543,626,0.62661,626,0.94167,626,1.11593,626,1.16639,626,1.1461
624,0.19962,624,0.25497,624,0.38115,624,0.48969,624,0.64278,624,0.95839,624,1.12552,624,1.1737,624,1.14871
622,0.20649,622,0.26389,622,0.39346,622,0.50453,622,0.65936,622,0.97371,622,1.13246,622,1.1779,622,1.14968
620,0.21582,620,0.27398,620,0.40643,620,0.51967,620,0.67543,620,0.98737,620,1.13725,620,1.18041,620,1.15008
618,0.22502,618,0.28393,618,0.41904,618,0.53429,618,0.69016,618,0.99825,618,1.13963,618,1.18021,618,1.14855
616,0.23317,616,0.29398,616,0.4312,616,0.54767,616,0.70313,616,1.00566,616,1.13838,616,1.17693,616,1.1456
614,0.24096,614,0.30309,614,0.44197,614,0.55933,614,0.7134,614,1.00889,614,1.13396,614,1.17176,614,1.14118
612,0.24814,612,0.31151,612,0.45098,612,0.56885,612,0.72004,612,1.00816,612,1.12635,612,1.16342,612,1.13517
610,0.2547,610,0.31823,610,0.4577,610,0.57483,610,0.72349,610,1.00394,610,1.11819,610,1.153,610,1.12781
608,0.25888,608,0.32294,608,0.46181,608,0.57816,608,0.72335,608,0.99609,608,1.10732,608,1.14071,608,1.11964
606,0.26239,606,0.32579,606,0.46253,606,0.57755,606,0.71954,606,0.98575,606,1.09526,606,1.12965,606,1.11072
604,0.26309,604,0.32602,604,0.46129,604,0.57362,604,0.71292,604,0.9739,604,1.08271,604,1.11619,604,1.10152
602,0.26232,602,0.32401,602,0.45741,602,0.56738,602,0.70446,602,0.96044,602,1.07008,602,1.10299,602,1.09295
600,0.26003,600,0.32064,600,0.45177,600,0.55986,600,0.6947,600,0.94838,600,1.0595,600,1.09478,600,1.08597
598,0.25695,598,0.31657,598,0.44547,598,0.55231,598,0.68544,598,0.93748,598,1.0512,598,1.08766,598,1.08066
596,0.2527,596,0.31153,596,0.43892,596,0.54465,596,0.67636,596,0.92894,596,1.04553,596,1.08203,596,1.07744
594,0.24884,594,0.30677,594,0.43299,594,0.53755,594,0.66956,594,0.92356,594,1.04313,594,1.07939,594,1.07641
592,0.2452,592,0.30252,592,0.4276,592,0.53189,592,0.66455,592,0.92089,592,1.04319,592,1.07962,592,1.07733
590,0.24137,590,0.29821,590,0.42335,590,0.52777,590,0.66107,590,0.92057,590,1.04572,590,1.08266,590,1.07926
588,0.23824,588,0.29481,588,0.42044,588,0.52508,588,0.66001,588,0.92356,588,1.0504,588,1.08823,588,1.08263
586,0.23518,586,0.29198,586,0.41821,586,0.52387,586,0.6607,586,0.92826,586,1.05575,586,1.09462,586,1.08689
584,0.23317,584,0.28975,584,0.41706,584,0.52397,584,0.66299,584,0.93485,584,1.06365,584,1.1031,584,1.09171
582,0.23122,582,0.28821,582,0.4171,582,0.52552,582,0.66633,582,0.943,582,1.07171,582,1.11051,582,1.09656
580,0.22982,580,0.28711,580,0.418,580,0.52788,580,0.67112,580,0.95084,580,1.0806,580,1.11995,580,1.10126
578,0.22869,578,0.28656,578,0.41918,578,0.53108,578,0.67737,578,0.961,578,1.08916,578,1.12755,578,1.10624
576,0.228,576,0.28676,576,0.42165,576,0.53517,576,0.68412,576,0.97193,576,1.09925,576,1.1381,576,1.11155
574,0.22764,574,0.28704,574,0.42418,574,0.54015,574,0.69137,574,0.98281,574,1.10812,574,1.14609,574,1.1162
572,0.22735,572,0.28775,572,0.42759,572,0.54547,572,0.69929,572,0.99448,572,1.11707,572,1.15541,572,1.12108
570,0.22751,570,0.2886,570,0.43118,570,0.55133,570,0.70781,570,1.00554,570,1.12682,570,1.16325,570,1.12582
568,0.22742,568,0.29033,568,0.43511,568,0.55764,568,0.71602,568,1.01733,568,1.13518,568,1.17084,568,1.1306
566,0.22835,566,0.29244,566,0.43998,566,0.56473,566,0.72558,566,1.03029,566,1.14506,566,1.18044,566,1.13524
564,0.22866,564,0.29387,564,0.44453,564,0.57202,564,0.73568,564,1.04277,564,1.15337,564,1.18813,564,1.14012
562,0.22991,562,0.29611,562,0.4498,562,0.57965,562,0.74542,562,1.05555,562,1.16265,562,1.19535,562,1.1445
560,0.23165,560,0.29866,560,0.45552,560,0.58794,560,0.75649,560,1.06874,560,1.17156,560,1.2044,560,1.14941
558,0.23327,558,0.3015,558,0.46157,558,0.5965,558,0.76756,558,1.08252,558,1.18061,558,1.21216,558,1.15408
556,0.23464,556,0.30443,556,0.46787,556,0.60568,556,0.77914,556,1.09509,556,1.19007,556,1.21982,556,1.15886
554,0.23621,554,0.30805,554,0.47496,554,0.61533,554,0.79096,554,1.10887,554,1.19859,554,1.2276,554,1.16361
552,0.23861,552,0.31166,552,0.48168,552,0.62527,552,0.80373,552,1.12355,552,1.20777,552,1.23502,552,1.16834
550,0.2412,550,0.31575,550,0.48932,550,0.63593,550,0.81709,550,1.1376,550,1.21838,550,1.24262,550,1.17291
548,0.24325,548,0.31984,548,0.49718,548,0.64658,548,0.8302,548,1.15133,548,1.22472,548,1.24832,548,1.17786
546,0.24482,546,0.32382,546,0.50528,546,0.65786,546,0.84402,546,1.16506,546,1.23214,546,1.2552,546,1.18245
544,0.24844,544,0.32837,544,0.51382,544,0.66956,544,0.8584,544,1.18047,544,1.24093,544,1.26238,544,1.18717
542,0.25214,542,0.33371,542,0.52342,542,0.68278,542,0.87384,542,1.1954,542,1.24922,542,1.2705,542,1.19238
540,0.25522,540,0.33923,540,0.5334,540,0.69583,540,0.88909,540,1.2109,540,1.25833,540,1.27755,540,1.1973
538,0.25923,538,0.34482,538,0.54341,538,0.70945,538,0.90514,538,1.22564,538,1.26612,538,1.28322,538,1.20228
536,0.26318,536,0.351,536,0.55415,536,0.72384,536,0.9218,536,1.24058,536,1.2739,536,1.28939,536,1.20712
534,0.26716,534,0.35702,534,0.56499,534,0.73887,534,0.93879,534,1.25477,534,1.28102,534,1.2943,534,1.21174
532,0.27214,532,0.36423,532,0.57743,532,0.75501,532,0.95645,532,1.27051,532,1.28956,532,1.30123,532,1.21699
530,0.27593,530,0.37115,530,0.58982,530,0.7713,530,0.97477,530,1.284,530,1.29614,530,1.30558,530,1.2218
528,0.2811,528,0.379,528,0.60292,528,0.78848,528,0.99341,528,1.29867,528,1.3026,528,1.31169,528,1.22723
526,0.28657,526,0.38737,526,0.61665,526,0.80643,526,1.01283,526,1.31234,526,1.30923,526,1.31636,526,1.23225
524,0.29283,524,0.39634,524,0.63133,524,0.82533,524,1.03237,524,1.32621,524,1.31605,524,1.32214,524,1.23754
522,0.29871,522,0.40537,522,0.64651,522,0.84439,522,1.05244,522,1.33957,522,1.32047,522,1.32573,522,1.2426
520,0.30543,520,0.4148,520,0.66239,520,0.86505,520,1.07299,520,1.35235,520,1.32561,520,1.33042,520,1.24756
518,0.31211,518,0.42608,518,0.67954,518,0.8867,518,1.09412,518,1.36435,518,1.33162,518,1.33426,518,1.25314
516,0.3199,516,0.43809,516,0.69797,516,0.90909,516,1.11589,516,1.37639,516,1.33781,516,1.33903,516,1.25845
514,0.32713,514,0.44952,514,0.71616,514,0.93157,514,1.13717,514,1.38697,514,1.34168,514,1.34198,514,1.26348
512,0.33682,512,0.46303,512,0.73646,512,0.95582,512,1.15921,512,1.39638,512,1.34669,512,1.34605,512,1.26902
510,0.34656,510,0.47711,510,0.75734,510,0.98047,510,1.181,510,1.40667,510,1.35201,510,1.35032,510,1.2744
508,0.35676,508,0.49271,508,0.7791,508,1.00621,508,1.20354,508,1.41535,508,1.35644,508,1.35405,508,1.27963
506,0.3678,506,0.5087,506,0.80161,506,1.03202,506,1.22469,506,1.42247,506,1.36015,506,1.36009,506,1.28467
504,0.37948,504,0.52585,504,0.82508,504,1.05808,504,1.24587,504,1.4285,504,1.3629,504,1.36177,504,1.28962
502,0.39188,502,0.54446,502,0.84918,502,1.08485,502,1.26596,502,1.43427,502,1.36722,502,1.36597,502,1.29439
500,0.4054,500,0.56473,500,0.87425,500,1.11159,500,1.28593,500,1.43824,500,1.3693,500,1.36769,500,1.29896
498,0.42017,498,0.58631,498,0.89986,498,1.13824,498,1.30495,498,1.44186,498,1.3724,498,1.37115,498,1.30321
496,0.43575,496,0.60957,496,0.92626,496,1.16498,496,1.32327,496,1.44487,496,1.37608,496,1.3746,496,1.30751
494,0.45314,494,0.633,494,0.95264,494,1.19072,494,1.3399,494,1.44673,494,1.37836,494,1.37731,494,1.31098
492,0.4709,492,0.65753,492,0.97951,492,1.21553,492,1.35542,492,1.44712,492,1.38101,492,1.3805,492,1.31447
490,0.49044,490,0.68299,490,1.00567,490,1.23918,490,1.36935,490,1.44886,490,1.38385,490,1.38314,490,1.31691
488,0.51065,488,0.70988,488,1.03161,488,1.26153,488,1.38212,488,1.44838,488,1.38538,488,1.38615,488,1.31924
486,0.53254,486,0.73684,486,1.05683,486,1.28216,486,1.39314,486,1.44775,486,1.38761,486,1.38881,486,1.321
484,0.55467,484,0.76406,484,1.08131,484,1.30085,484,1.40309,484,1.44747,484,1.38887,484,1.39049,484,1.32217
482,0.5772,482,0.79085,482,1.10426,482,1.31795,482,1.41084,482,1.44552,482,1.38907,482,1.38984,482,1.32263
480,0.60128,480,0.81858,480,1.1269,480,1.33391,480,1.4181,480,1.44422,480,1.38961,480,1.39098,480,1.32347
478,0.62663,478,0.84663,478,1.14886,478,1.34923,478,1.42535,478,1.44311,478,1.39136,478,1.39332,478,1.32396
476,0.65236,476,0.8748,476,1.17037,476,1.36255,476,1.432,476,1.44258,476,1.39265,476,1.39459,476,1.32396
474,0.67829,474,0.90265,474,1.19052,474,1.37539,474,1.43621,474,1.44095,474,1.39145,474,1.39354,474,1.32364
472,0.70687,472,0.9316,472,1.21134,472,1.38785,472,1.44283,472,1.44045,472,1.39375,472,1.39646,472,1.32383
470,0.73513,470,0.96065,470,1.23062,470,1.39927,470,1.44665,470,1.43855,470,1.39427,470,1.3951,470,1.32304
468,0.76298,468,0.98893,468,1.24857,468,1.40877,468,1.44916,468,1.43608,468,1.39304,468,1.39544,468,1.32165
466,0.79282,466,1.01748,466,1.26612,466,1.41716,466,1.45149,466,1.43449,466,1.39172,466,1.39271,466,1.32052
464,0.82314,464,1.04589,464,1.28278,464,1.42469,464,1.4534,464,1.43124,464,1.39108,464,1.39262,464,1.31855
462,0.85393,462,1.07348,462,1.29778,462,1.43056,462,1.45402,462,1.42812,462,1.38939,462,1.39141,462,1.31557
460,0.88435,460,1.09972,460,1.31148,460,1.43437,460,1.45284,460,1.42403,460,1.38706,460,1.39017,460,1.31259
458,0.9151,458,1.1247,458,1.32312,458,1.43704,458,1.45044,458,1.41873,458,1.38393,458,1.38549,458,1.30842
456,0.9455,456,1.14855,456,1.33322,456,1.43781,456,1.44721,456,1.41309,456,1.37886,456,1.38004,456,1.30395
454,0.97556,454,1.17158,454,1.34125,454,1.43733,454,1.44252,454,1.40797,454,1.37531,454,1.37738,454,1.29917
452,1.00411,452,1.18999,452,1.34678,452,1.43426,452,1.43706,452,1.4009,452,1.36925,452,1.37078,452,1.29336
450,1.03091,450,1.20738,450,1.35016,450,1.42912,450,1.42924,450,1.3921,450,1.36155,450,1.36346,450,1.28699
448,1.0566,448,1.22217,448,1.35195,448,1.42406,448,1.42196,448,1.38404,448,1.35629,448,1.35709,448,1.28104
446,1.08016,446,1.23391,446,1.35191,446,1.41701,446,1.41295,446,1.37527,446,1.34814,446,1.35022,446,1.27413
444,1.10089,444,1.24333,444,1.35043,444,1.40918,444,1.40371,444,1.36706,444,1.34033,444,1.34275,444,1.26679
442,1.12039,442,1.25136,442,1.34786,442,1.40137,442,1.39518,442,1.35856,442,1.33415,442,1.33754,442,1.26094
440,1.13657,440,1.25601,440,1.34384,440,1.39306,440,1.38547,440,1.34948,440,1.32611,440,1.32806,440,1.25431
438,1.15137,438,1.26042,438,1.34042,438,1.38515,438,1.37714,438,1.34186,438,1.31853,438,1.31941,438,1.24865
436,1.1648,436,1.26387,436,1.33677,436,1.37795,436,1.36997,436,1.33513,436,1.31316,436,1.31402,436,1.24323
434,1.17687,434,1.26673,434,1.33395,434,1.37184,434,1.36273,434,1.32841,434,1.30769,434,1.30942,434,1.2385
432,1.18793,432,1.26992,432,1.33134,432,1.36658,432,1.35746,432,1.32354,432,1.30448,432,1.30571,432,1.23489
430,1.19755,430,1.27222,430,1.32902,430,1.36206,430,1.35223,430,1.31774,430,1.29807,430,1.30095,430,1.23114
428,1.20725,428,1.27568,428,1.32787,428,1.35814,428,1.34755,428,1.31306,428,1.29439,428,1.29647,428,1.22771
426,1.21641,426,1.27907,426,1.32758,426,1.35529,426,1.3445,426,1.31031,426,1.29181,426,1.29333,426,1.22523
424,1.22475,424,1.28352,424,1.32761,424,1.35268,424,1.34041,424,1.30693,424,1.2886,424,1.29055,424,1.22272
422,1.23373,422,1.28807,422,1.32838,422,1.35133,422,1.33764,422,1.30327,422,1.28674,422,1.28828,422,1.22028
420,1.24342,420,1.29359,420,1.32981,420,1.34991,420,1.33632,420,1.30117,420,1.28423,420,1.28609,420,1.21825
418,1.25251,418,1.29868,418,1.3306,418,1.34805,418,1.33346,418,1.29734,418,1.27993,418,1.28141,418,1.21534
416,1.26148,416,1.30542,416,1.33233,416,1.34684,416,1.33075,416,1.29476,416,1.27755,416,1.27888,416,1.21327
414,1.27247,414,1.31152,414,1.33405,414,1.34585,414,1.32871,414,1.29197,414,1.27627,414,1.27884,414,1.21138
412,1.28236,412,1.3185,412,1.33571,412,1.34442,412,1.32598,412,1.28757,412,1.27321,412,1.2754,412,1.20866
410,1.29287,410,1.32533,410,1.33717,410,1.34222,410,1.32237,410,1.28452,410,1.26958,410,1.27089,410,1.20597
408,1.30275,408,1.33099,408,1.33823,408,1.34068,408,1.3197,408,1.28092,408,1.26702,408,1.26896,408,1.203
406,1.31283,406,1.3363,406,1.33821,406,1.33697,406,1.31559,406,1.2762,406,1.26177,406,1.26318,406,1.19907
404,1.32293,404,1.3412,404,1.33676,404,1.33382,404,1.3105,404,1.26958,404,1.2566,404,1.25935,404,1.19498
402,1.33318,402,1.3458,402,1.33674,402,1.32889,402,1.30583,402,1.2658,402,1.25451,402,1.25572,402,1.19102
400,1.34048,400,1.34926,400,1.33304,400,1.32273,400,1.29865,400,1.25972,400,1.24682,400,1.24859,400,1.18596
398,1.34676,398,1.34984,398,1.32918,398,1.31597,398,1.29058,398,1.25062,398,1.23805,398,1.23982,398,1.18022
396,1.35195,396,1.34906,396,1.32413,396,1.30813,396,1.28231,396,1.24337,396,1.23096,396,1.23424,396,1.17443
394,1.35539,394,1.34692,394,1.31652,394,1.29897,394,1.27281,394,1.23467,394,1.22545,394,1.22605,394,1.16815
392,1.35633,392,1.34159,392,1.30805,392,1.28822,392,1.26348,392,1.22465,392,1.2167,392,1.21742,392,1.16113
390,1.35363,390,1.3347,390,1.29768,390,1.27541,390,1.25039,390,1.21468,390,1.20668,390,1.20818,390,1.15309
388,1.34846,388,1.32415,388,1.2848,388,1.26205,388,1.23736,388,1.20235,388,1.19547,388,1.19749,388,1.14442
386,1.34047,386,1.31265,386,1.2709,386,1.24808,386,1.22333,386,1.19059,386,1.18489,386,1.1873,386,1.13596
384,1.32939,384,1.29775,384,1.25505,384,1.23066,384,1.20816,384,1.17732,384,1.17262,384,1.17428,384,1.12559
382,1.31576,382,1.28166,382,1.23811,382,1.21487,382,1.19244,382,1.1638,382,1.15952,382,1.16149,382,1.11642
380,1.29914,380,1.2643,380,1.22104,380,1.19831,380,1.17749,380,1.15093,380,1.14734,380,1.15035,380,1.10603
378,1.28136,378,1.24512,378,1.20271,378,1.17964,378,1.1614,378,1.13767,378,1.13451,378,1.13693,378,1.09668
376,1.26141,376,1.22455,376,1.18426,376,1.16309,376,1.14505,376,1.12235,376,1.12201,376,1.12505,376,1.08672
374,1.23993,374,1.20436,374,1.16526,374,1.14455,374,1.12813,374,1.1081,374,1.10788,374,1.1096,374,1.0765
372,1.21859,372,1.18359,372,1.14715,372,1.12802,372,1.11225,372,1.09605,372,1.09436,372,1.09993,372,1.067
370,1.19637,370,1.16313,370,1.12887,370,1.11237,370,1.09812,370,1.08272,370,1.08375,370,1.08938,370,1.05794
368,1.17468,368,1.14243,368,1.11074,368,1.09595,368,1.08327,368,1.07131,368,1.07199,368,1.07695,368,1.04952
366,1.15173,366,1.12179,366,1.09325,366,1.08019,366,1.06857,366,1.0586,366,1.06104,366,1.06347,366,1.04029
364,1.12904,364,1.10249,364,1.0763,364,1.06481,364,1.05605,364,1.04695,364,1.04957,364,1.05595,364,1.03203
362,1.10788,362,1.08301,362,1.06033,362,1.05017,362,1.04124,362,1.03547,362,1.0383,362,1.04355,362,1.02407
360,1.08638,360,1.06491,360,1.0457,360,1.03771,360,1.03004,360,1.02698,360,1.02958,360,1.03457,360,1.01691
358,1.06766,358,1.04824,358,1.03084,358,1.0262,358,1.02106,358,1.01634,358,1.02248,358,1.02669,358,1.01147
356,1.05053,356,1.03352,356,1.02003,356,1.01614,356,1.01144,356,1.01095,356,1.01369,356,1.01919,356,1.00626
354,1.03503,354,1.02105,354,1.01144,354,1.00812,354,1.00373,354,1.00593,354,1.00731,354,1.01276,354,1.00272
352,1.02303,352,1.00977,352,1.00299,352,1.00372,352,0.99908,352,1.00066,352,1.00739,352,1.01391,352,0.99972
350,1.01185,350,1.00428,350,0.99892,350,0.99822,350,0.99584,350,0.99697,350,0.99877,350,1.00842,350,0.99919
348,1.0019,348,0.99801,348,0.99761,348,0.99607,348,0.99616,348,0.99773,348,0.99533,348,0.99755,348,0.9991
346,0.99786,346,0.99873,346,0.99799,346,0.99856,346,0.99737,346,0.99565,346,0.99251,346,0.99533,346,0.99956
344,0.9988,344,1.0021,344,1.00073,344,1.00291,344,1.00096,344,0.99658,344,0.99655,344,0.99782,344,1.00183
342,1.00434,342,1.0073,342,1.00668,342,1.00906,342,1.00539,342,1.00453,342,1.00198,342,0.99792,342,1.00655
340,1.01337,340,1.01694,340,1.01515,340,1.01505,340,1.01254,340,1.00905,340,1.00901,340,1.00893,340,1.00977
338,1.02241,338,1.02445,338,1.02178,338,1.02122,338,1.01833,338,1.01195,338,1.00931,338,1.00892,338,1.01275
336,1.03487,336,1.03541,336,1.0291,336,1.02696,336,1.02142,336,1.01628,336,1.0139,336,1.01351,336,1.01464
334,1.04562,334,1.04305,334,1.03514,334,1.03051,334,1.0244,334,1.01668,334,1.01128,334,1.01153,334,1.01591
332,1.05765,332,1.05131,332,1.04002,332,1.03413,332,1.02757,332,1.01715,332,1.01506,332,1.01389,332,1.0182
330,1.07048,330,1.06051,330,1.04695,330,1.0396,330,1.03174,330,1.02262,330,1.01836,330,1.01764,330,1.01944
328,1.0818,328,1.06843,328,1.05209,328,1.04399,328,1.03472,328,1.02352,328,1.01943,328,1.01638,328,1.02168
326,1.09553,326,1.07696,326,1.05718,326,1.04738,326,1.03753,326,1.02383,326,1.02127,326,1.01901,326,1.02313
324,1.10955,324,1.08591,324,1.06284,324,1.05072,324,1.04035,324,1.0267,324,1.0213,324,1.01921,324,1.02395
322,1.12406,322,1.09537,322,1.06896,322,1.05427,322,1.04227,322,1.02784,322,1.02322,322,1.02217,322,1.02543
320,1.14006,320,1.10433,320,1.07409,320,1.05819,320,1.04517,320,1.02901,320,1.02251,320,1.02187,320,1.02606
318,1.15692,318,1.11384,318,1.0789,318,1.06125,318,1.04744,318,1.03091,318,1.02344,318,1.0226,318,1.02655
316,1.17606,316,1.12473,316,1.08521,316,1.06442,316,1.04891,316,1.03189,316,1.02587,316,1.02426,316,1.02871
314,1.19405,314,1.13459,314,1.09039,314,1.06776,314,1.05261,314,1.03076,314,1.02546,314,1.02528,314,1.02941
312,1.21514,312,1.14487,312,1.09721,312,1.07079,312,1.0549,312,1.0345,312,1.02799,312,1.0252,312,1.03145
310,1.23594,310,1.15595,310,1.10327,310,1.07559,310,1.05714,310,1.0349,310,1.02818,310,1.0274,310,1.03333
308,1.256,308,1.16752,308,1.10992,308,1.08026,308,1.062,308,1.03846,308,1.03158,308,1.02964,308,1.03583
306,1.2766,306,1.17896,306,1.11646,306,1.08431,306,1.06396,306,1.04006,306,1.03208,306,1.02747,306,1.03769
304,1.29718,304,1.19116,304,1.12353,304,1.08824,304,1.06712,304,1.04202,304,1.03209,304,1.03095,304,1.04122
302,1.31805,302,1.20332,302,1.13142,302,1.09424,302,1.07321,302,1.04692,302,1.03942,302,1.0362,302,1.04442
300,1.33707,300,1.21507,300,1.13832,300,1.09933,300,1.07689,300,1.04915,300,1.0408,300,1.03813,300,1.04771
298,1.35744,298,1.2262,298,1.14553,298,1.10458,298,1.0793,298,1.05162,298,1.041,298,1.04053,298,1.05038
296,1.37659,296,1.23787,296,1.15269,296,1.10853,296,1.08354,296,1.05287,296,1.04395,296,1.04058,296,1.05379
294,1.39448,294,1.24954,294,1.1604,294,1.11333,294,1.0877,294,1.05605,294,1.04544,294,1.04446,294,1.05708
292,1.41376,292,1.26112,292,1.16709,292,1.11791,292,1.09103,292,1.059,292,1.04802,292,1.04621,292,1.06068
290,1.43201,290,1.27278,290,1.17441,290,1.12301,290,1.0946,290,1.06079,290,1.04978,290,1.04548,290,1.06318
288,1.45134,288,1.28541,288,1.18183,288,1.12791,288,1.09839,288,1.06399,288,1.05205,288,1.04877,288,1.06706
286,1.47023,286,1.29804,286,1.18964,286,1.13255,286,1.10157,286,1.06669,286,1.05433,286,1.05074,286,1.0698
284,1.49065,284,1.3109,284,1.19748,284,1.13839,284,1.10694,284,1.06981,284,1.05667,284,1.05072,284,1.07344
282,1.51108,282,1.32378,282,1.20447,282,1.14174,282,1.1095,282,1.07128,282,1.05601,282,1.05134,282,1.07615
280,1.53212,280,1.33572,280,1.21099,280,1.14543,280,1.11296,280,1.07268,280,1.05672,280,1.05177,280,1.07823
278,1.55081,278,1.34624,278,1.21603,278,1.14764,278,1.11429,278,1.07197,278,1.0551,278,1.04778,278,1.07938
276,1.57003,276,1.35608,276,1.21942,276,1.1489,276,1.1137,276,1.07148,276,1.05239,276,1.04406,276,1.07945
274,1.58594,274,1.36194,274,1.22042,274,1.14729,274,1.11141,274,1.06605,274,1.04407,274,1.03595,274,1.07788
272,1.59884,272,1.36613,272,1.21999,272,1.14413,272,1.10754,272,1.06149,272,1.03702,272,1.02747,272,1.07587
270,1.61216,270,1.36867,270,1.21779,270,1.13968,270,1.10283,270,1.05579,270,1.02919,270,1.01988,270,1.07281
268,1.62405,268,1.36989,268,1.21414,268,1.1344,268,1.09711,268,1.04986,268,1.02142,268,1.01083,268,1.06925
266,1.63346,266,1.36866,266,1.20891,266,1.1278,266,1.09043,266,1.0425,266,1.0134,266,1.00223,266,1.06519
264,1.6439,264,1.36685,264,1.2035,264,1.12086,264,1.08284,264,1.03537,264,1.00509,264,0.9931,264,1.06105
262,1.65316,262,1.36376,262,1.19683,262,1.11339,262,1.07621,262,1.02856,262,0.9975,262,0.98478,262,1.05664
260,1.66053,260,1.35987,260,1.18952,260,1.10465,260,1.06791,260,1.02131,260,0.98972,260,0.97652,260,1.05194
258,1.66993,258,1.35534,258,1.1817,258,1.09603,258,1.06049,258,1.01516,258,0.9862,258,0.97562,258,1.04742
256,1.67595,256,1.34803,256,1.17158,256,1.08622,256,1.05019,256,1.00707,256,0.97946,256,0.96674,256,1.04189
254,1.68074,254,1.33992,254,1.16193,254,1.0755,254,1.03996,254,0.99964,254,0.97303,254,0.96329,254,1.03635
252,1.68706,252,1.33092,252,1.15052,252,1.06445,252,1.02985,252,0.99305,252,0.97118,252,0.96282,252,1.03019
250,1.69285,250,1.32189,250,1.1391,250,1.05302,250,1.02046,250,0.98709,250,0.97087,250,0.96207,250,1.02461