File: example/MoS2 Ext - JOVE HER.csv
1-1.5k,,2-3k,,3-5k,,5-15k,,0.5-0.75k,,0.75-1k,,1k-2k,,15kS,
Wavelength (nm),Ext,Wavelength (nm),Ext,Wavelength (nm),Ext,Wavelength (nm),Ext,Wavelength (nm),Ext,Wavelength (nm),Ext,Wavelength (nm),Ext,Wavelength (nm),Ext
1100,0.03932,1100,0.00791,1100,0.00708,1100,0.0104,1100,0.2911,1100,0.12161,1100,0.01364,1100,0.00696
1098,0.04012,1098,0.00806,1098,0.00732,1098,0.01053,1098,0.29326,1098,0.12284,1098,0.01386,1098,0.00741
1096,0.04041,1096,0.00806,1096,0.00727,1096,0.01052,1096,0.29517,1096,0.12376,1096,0.01391,1096,0.00739
1094,0.04054,1094,0.00811,1094,0.00722,1094,0.01054,1094,0.29712,1094,0.12463,1094,0.01392,1094,0.00744
1092,0.04079,1092,0.00805,1092,0.00714,1092,0.01054,1092,0.29911,1092,0.12545,1092,0.01392,1092,0.00731
1090,0.04079,1090,0.00797,1090,0.00693,1090,0.01046,1090,0.301,1090,0.12613,1090,0.01381,1090,0.00725
1088,0.04148,1088,0.00813,1088,0.00721,1088,0.01061,1088,0.30318,1088,0.12743,1088,0.01418,1088,0.00728
1086,0.04222,1086,0.0083,1086,0.00741,1086,0.0108,1086,0.30554,1086,0.12883,1086,0.01452,1086,0.00813
1084,0.04197,1084,0.0082,1084,0.00716,1084,0.01066,1084,0.30731,1084,0.12929,1084,0.01426,1084,0.00771
1082,0.04229,1082,0.00822,1082,0.00718,1082,0.01068,1082,0.30942,1082,0.13033,1082,0.01425,1082,0.00759
1080,0.04277,1080,0.00828,1080,0.00727,1080,0.01074,1080,0.31163,1080,0.13154,1080,0.01447,1080,0.00774
1078,0.04324,1078,0.00846,1078,0.00735,1078,0.01085,1078,0.31385,1078,0.1327,1078,0.01463,1078,0.00779
1076,0.04344,1076,0.00835,1076,0.00734,1076,0.01084,1076,0.31592,1076,0.13359,1076,0.01467,1076,0.00782
1074,0.0439,1074,0.00851,1074,0.00742,1074,0.01092,1074,0.31817,1074,0.13485,1074,0.01483,1074,0.00805
1072,0.04422,1072,0.00865,1072,0.00748,1072,0.011,1072,0.32041,1072,0.13603,1072,0.01499,1072,0.00836
1070,0.04455,1070,0.0087,1070,0.0075,1070,0.01106,1070,0.32268,1070,0.13708,1070,0.01508,1070,0.00854
1068,0.04498,1068,0.00871,1068,0.00756,1068,0.0111,1068,0.32494,1068,0.13829,1068,0.01517,1068,0.00854
1066,0.04554,1066,0.00876,1066,0.00777,1066,0.01116,1066,0.32718,1066,0.13949,1066,0.01531,1066,0.0086
1064,0.04567,1064,0.00872,1064,0.00756,1064,0.01113,1064,0.32938,1064,0.14042,1064,0.01529,1064,0.00849
1062,0.04632,1062,0.00889,1062,0.00778,1062,0.01125,1062,0.33182,1062,0.14184,1062,0.01562,1062,0.00886
1060,0.04694,1060,0.009,1060,0.00786,1060,0.01134,1060,0.3342,1060,0.14312,1060,0.01588,1060,0.00909
1058,0.04648,1058,0.00874,1058,0.00742,1058,0.01122,1058,0.33612,1058,0.14371,1058,0.01547,1058,0.00853
1056,0.04771,1056,0.00886,1056,0.00761,1056,0.01123,1056,0.33847,1056,0.14493,1056,0.01562,1056,0.00875
1054,0.04786,1054,0.00901,1054,0.0077,1054,0.01135,1054,0.34102,1054,0.14646,1054,0.01604,1054,0.00876
1052,0.04797,1052,0.00906,1052,0.00784,1052,0.01137,1052,0.34338,1052,0.14758,1052,0.01605,1052,0.00899
1050,0.04846,1050,0.00917,1050,0.00791,1050,0.01148,1050,0.34576,1050,0.14884,1050,0.0162,1050,0.00885
1048,0.04892,1048,0.00908,1048,0.00779,1048,0.01151,1048,0.34818,1048,0.15009,1048,0.01627,1048,0.00915
1046,0.04939,1046,0.00914,1046,0.00788,1046,0.01155,1046,0.35069,1046,0.15146,1046,0.01644,1046,0.00935
1044,0.04978,1044,0.00932,1044,0.00811,1044,0.01159,1044,0.35308,1044,0.15268,1044,0.01656,1044,0.0094
1042,0.05006,1042,0.00937,1042,0.00806,1042,0.01162,1042,0.35549,1042,0.15384,1042,0.01663,1042,0.00948
1040,0.05057,1040,0.00945,1040,0.00818,1040,0.01168,1040,0.35808,1040,0.15531,1040,0.01681,1040,0.00954
1038,0.05111,1038,0.00948,1038,0.00811,1038,0.01175,1038,0.36067,1038,0.15672,1038,0.01696,1038,0.0095
1036,0.05144,1036,0.00945,1036,0.00807,1036,0.01175,1036,0.36311,1036,0.15793,1036,0.01705,1036,0.00951
1034,0.05187,1034,0.00939,1034,0.00812,1034,0.01182,1034,0.36566,1034,0.15925,1034,0.01713,1034,0.00958
1032,0.05228,1032,0.00942,1032,0.00812,1032,0.01186,1032,0.36829,1032,0.16063,1032,0.01729,1032,0.0097
1030,0.05289,1030,0.00993,1030,0.00828,1030,0.01193,1030,0.37093,1030,0.16217,1030,0.0175,1030,0.01015
1028,0.05317,1028,0.00966,1028,0.00814,1028,0.01189,1028,0.37341,1028,0.16328,1028,0.01748,1028,0.00978
1026,0.05357,1026,0.00983,1026,0.00814,1026,0.01194,1026,0.3761,1026,0.16479,1026,0.01765,1026,0.0099
1024,0.05401,1024,0.00992,1024,0.00836,1024,0.01202,1024,0.37881,1024,0.16626,1024,0.01771,1024,0.01005
1022,0.05473,1022,0.01001,1022,0.00847,1022,0.01214,1022,0.38157,1022,0.16785,1022,0.01798,1022,0.00997
1020,0.05514,1020,0.00991,1020,0.00842,1020,0.01215,1020,0.38426,1020,0.16938,1020,0.01811,1020,0.01048
1018,0.05575,1018,0.00989,1018,0.00848,1018,0.01223,1018,0.38701,1018,0.17091,1018,0.0183,1018,0.01054
1016,0.05628,1016,0.01016,1016,0.00854,1016,0.01224,1016,0.38983,1016,0.17237,1016,0.01843,1016,0.01051
1014,0.05682,1014,0.01024,1014,0.00858,1014,0.01231,1014,0.3926,1014,0.17395,1014,0.01857,1014,0.01057
1012,0.05734,1012,0.0105,1012,0.00863,1012,0.01237,1012,0.39538,1012,0.17551,1012,0.01877,1012,0.01066
1010,0.05758,1010,0.01053,1010,0.00867,1010,0.01238,1010,0.39819,1010,0.17697,1010,0.01885,1010,0.01067
1008,0.05816,1008,0.01051,1008,0.0087,1008,0.01246,1008,0.40107,1008,0.17862,1008,0.01899,1008,0.01079
1006,0.059,1006,0.01061,1006,0.00876,1006,0.01255,1006,0.40398,1006,0.18032,1006,0.01901,1006,0.01108
1004,0.05965,1004,0.01068,1004,0.00894,1004,0.0126,1004,0.40689,1004,0.18194,1004,0.01933,1004,0.01108
1002,0.0603,1002,0.01074,1002,0.00896,1002,0.01266,1002,0.40984,1002,0.18354,1002,0.01983,1002,0.01119
1000,0.0609,1000,0.01087,1000,0.00895,1000,0.01271,1000,0.41282,1000,0.18522,1000,0.01994,1000,0.0113
998,0.06162,998,0.01096,998,0.0092,998,0.01277,998,0.41581,998,0.18696,998,0.02017,998,0.01138
996,0.06203,996,0.01094,996,0.00922,996,0.01281,996,0.41881,996,0.18866,996,0.0201,996,0.01147
994,0.06282,994,0.01108,994,0.00938,994,0.01294,994,0.42203,994,0.19056,994,0.02049,994,0.01155
992,0.06355,992,0.01112,992,0.00938,992,0.01298,992,0.42512,992,0.19238,992,0.02058,992,0.01176
990,0.06419,990,0.01139,990,0.00949,990,0.01305,990,0.42816,990,0.19413,990,0.02104,990,0.01181
988,0.06484,988,0.01172,988,0.00955,988,0.01312,988,0.43134,988,0.19601,988,0.02124,988,0.01208
986,0.06559,986,0.01167,986,0.0096,986,0.01321,986,0.43459,986,0.19798,986,0.02115,986,0.01225
984,0.06632,984,0.01169,984,0.00966,984,0.01328,984,0.43776,984,0.19985,984,0.02167,984,0.01225
982,0.06703,982,0.01171,982,0.00979,982,0.01334,982,0.44093,982,0.20173,982,0.02184,982,0.01238
980,0.06768,980,0.01186,980,0.00991,980,0.0134,980,0.44419,980,0.2037,980,0.0221,980,0.0125
978,0.06836,978,0.01205,978,0.00996,978,0.01349,978,0.4475,978,0.20576,978,0.02259,978,0.01257
976,0.0692,976,0.01211,976,0.01009,976,0.01358,976,0.45089,976,0.20782,976,0.02261,976,0.01273
974,0.06992,974,0.0122,974,0.01018,974,0.01366,974,0.45413,974,0.20977,974,0.02286,974,0.013
972,0.07054,972,0.0123,972,0.0102,972,0.01369,972,0.45745,972,0.21167,972,0.023,972,0.01274
970,0.07214,970,0.01242,970,0.01032,970,0.01378,970,0.46095,970,0.21394,970,0.02344,970,0.01312
968,0.07234,968,0.01253,968,0.01044,968,0.0139,968,0.46427,968,0.21601,968,0.02359,968,0.01334
966,0.07309,966,0.01266,966,0.01052,966,0.01394,966,0.4677,966,0.21807,966,0.02372,966,0.01324
964,0.07368,964,0.01275,964,0.01054,964,0.014,964,0.47106,964,0.2202,964,0.02396,964,0.0135
962,0.07442,962,0.01283,962,0.01058,962,0.01405,962,0.47453,962,0.2222,962,0.02431,962,0.01364
960,0.07529,960,0.01291,960,0.0107,960,0.01415,960,0.47793,960,0.2244,960,0.02449,960,0.0139
958,0.07583,958,0.01287,958,0.01059,958,0.01418,958,0.48132,958,0.22641,958,0.02456,958,0.01391
956,0.07654,956,0.01303,956,0.01064,956,0.01424,956,0.48489,956,0.22856,956,0.02493,956,0.01379
954,0.07716,954,0.01308,954,0.0107,954,0.01429,954,0.48835,954,0.23068,954,0.02496,954,0.01385
952,0.07783,952,0.01307,952,0.01061,952,0.01428,952,0.49176,952,0.23279,952,0.02495,952,0.01397
950,0.07854,950,0.01311,950,0.01063,950,0.01432,950,0.49536,950,0.23498,950,0.02519,950,0.01395
948,0.07908,948,0.01324,948,0.01073,948,0.01437,948,0.49893,948,0.23721,948,0.02551,948,0.01405
946,0.07988,946,0.01349,946,0.01068,946,0.01444,946,0.50252,946,0.2395,946,0.02571,946,0.0141
944,0.0802,944,0.01352,944,0.01072,944,0.01445,944,0.50607,944,0.24162,944,0.02578,944,0.01401
942,0.08122,942,0.01351,942,0.01074,942,0.01456,942,0.50982,942,0.24415,942,0.02617,942,0.01429
940,0.08234,940,0.01356,940,0.01084,940,0.01463,940,0.51355,940,0.24648,940,0.02629,940,0.01448
938,0.08303,938,0.01371,938,0.01084,938,0.0147,938,0.51723,938,0.24892,938,0.02646,938,0.01456
936,0.08383,936,0.01384,936,0.011,936,0.01475,936,0.52101,936,0.25128,936,0.02667,936,0.01454
934,0.08476,934,0.01411,934,0.01097,934,0.01485,934,0.52489,934,0.25395,934,0.02697,934,0.01474
932,0.08566,932,0.01412,932,0.01111,932,0.01495,932,0.52873,932,0.25645,932,0.02721,932,0.01492
930,0.08648,930,0.01424,930,0.01122,930,0.01499,930,0.53254,930,0.25897,930,0.02746,930,0.01498
928,0.08744,928,0.01431,928,0.01136,928,0.01507,928,0.53651,928,0.26164,928,0.02773,928,0.01508
926,0.08827,926,0.01439,926,0.01129,926,0.01512,926,0.54032,926,0.26411,926,0.02795,926,0.0152
924,0.08905,924,0.01451,924,0.01134,924,0.01519,924,0.54418,924,0.26673,924,0.02817,924,0.01518
922,0.09006,922,0.01465,922,0.01142,922,0.01531,922,0.54816,922,0.2695,922,0.02846,922,0.01551
920,0.09101,920,0.01486,920,0.01149,920,0.01537,920,0.55212,920,0.27217,920,0.02871,920,0.01555
918,0.09196,918,0.01496,918,0.0115,918,0.01544,918,0.55612,918,0.27482,918,0.02898,918,0.01562
916,0.09308,916,0.01502,916,0.01161,916,0.01554,916,0.56017,916,0.27767,916,0.0293,916,0.01583
914,0.09392,914,0.01506,914,0.01175,914,0.0156,914,0.56416,914,0.28043,914,0.02953,914,0.01601
912,0.09497,912,0.01523,912,0.01176,912,0.0157,912,0.56841,912,0.2833,912,0.02985,912,0.01605
910,0.09603,910,0.01536,910,0.01186,910,0.0158,910,0.5726,910,0.28634,910,0.03019,910,0.01623
908,0.09714,908,0.01546,908,0.01185,908,0.01585,908,0.57671,908,0.28916,908,0.03043,908,0.01632
906,0.09807,906,0.01549,906,0.01198,906,0.01596,906,0.58102,906,0.29222,906,0.03081,906,0.01644
904,0.09929,904,0.0156,904,0.01208,904,0.01608,904,0.58536,904,0.29529,904,0.03111,904,0.01665
902,0.10051,902,0.01589,902,0.01214,902,0.01619,902,0.58962,902,0.29838,902,0.03133,902,0.01676
900,0.10148,900,0.01618,900,0.01221,900,0.01625,900,0.59389,900,0.30146,900,0.03162,900,0.01684
898,0.10263,898,0.0165,898,0.01219,898,0.01631,898,0.59815,898,0.30451,898,0.03204,898,0.01694
896,0.10497,896,0.01635,896,0.01239,896,0.01648,896,0.60262,896,0.30786,896,0.0322,896,0.01732
894,0.10517,894,0.01644,894,0.01248,894,0.01657,894,0.60706,894,0.3111,894,0.03269,894,0.01742
892,0.1063,892,0.01696,892,0.01257,892,0.01666,892,0.61146,892,0.31433,892,0.03352,892,0.0176
890,0.10757,890,0.01693,890,0.01272,890,0.01677,890,0.616,890,0.31784,890,0.03374,890,0.01775
888,0.109,888,0.01714,888,0.01297,888,0.01694,888,0.62064,888,0.32135,888,0.03406,888,0.01808
886,0.1101,886,0.01717,886,0.01291,886,0.017,886,0.62502,886,0.32463,886,0.03427,886,0.01812
884,0.11139,884,0.01735,884,0.01302,884,0.0171,884,0.62963,884,0.32811,884,0.03466,884,0.01834
882,0.11255,882,0.01747,882,0.01306,882,0.01722,882,0.63419,882,0.33162,882,0.03498,882,0.01851
880,0.11397,880,0.01766,880,0.0132,880,0.01731,880,0.63878,880,0.3352,880,0.03538,880,0.01864
878,0.1153,878,0.01782,878,0.01328,878,0.01743,878,0.64335,878,0.33876,878,0.03574,878,0.01878
876,0.11656,876,0.01797,876,0.01334,876,0.01751,876,0.64796,876,0.34238,876,0.0361,876,0.01887
874,0.11801,874,0.01813,874,0.01348,874,0.01764,874,0.65266,874,0.34611,874,0.03654,874,0.01907
872,0.11946,872,0.01831,872,0.01358,872,0.01775,872,0.65738,872,0.34987,872,0.03693,872,0.0193
870,0.12097,870,0.01849,870,0.0137,870,0.01787,870,0.66211,870,0.35366,870,0.03737,870,0.01946
868,0.12243,868,0.01868,868,0.0138,868,0.01802,868,0.66705,868,0.35762,868,0.03779,868,0.01966
866,0.12388,866,0.01891,866,0.01389,866,0.01811,866,0.67187,866,0.36154,866,0.03824,866,0.01993
864,0.12544,864,0.01911,864,0.01403,864,0.01827,864,0.67673,864,0.36557,864,0.03874,864,0.02016
862,0.12701,862,0.0193,862,0.01413,862,0.01838,862,0.68162,862,0.36959,862,0.03916,862,0.02035
860,0.12872,860,0.01954,860,0.01422,860,0.01856,860,0.68665,860,0.37382,860,0.0397,860,0.02079
858,0.13077,858,0.01994,858,0.01469,858,0.01882,858,0.69183,858,0.37835,858,0.04048,858,0.02129
856,0.13156,856,0.01984,856,0.01424,856,0.01868,856,0.6963,856,0.38178,856,0.04037,856,0.02063
854,0.1331,854,0.01996,854,0.01439,854,0.01878,854,0.70123,854,0.38593,854,0.04078,854,0.02084
852,0.13499,852,0.02025,852,0.01477,852,0.01895,852,0.70636,852,0.39037,852,0.04138,852,0.02124
850,0.13664,850,0.0204,850,0.01472,850,0.01907,850,0.71143,850,0.39473,850,0.04185,850,0.02143
848,0.13867,848,0.02073,848,0.01501,848,0.01928,848,0.71665,848,0.39942,848,0.04256,848,0.02193
846,0.14019,846,0.02087,846,0.01512,846,0.01932,846,0.72165,846,0.40366,846,0.04289,846,0.02174
844,0.14194,844,0.02104,844,0.01511,844,0.01943,844,0.72681,844,0.4082,844,0.04337,844,0.02197
842,0.14359,842,0.02125,842,0.01508,842,0.01953,842,0.73189,842,0.41266,842,0.04381,842,0.02212
840,0.1456,840,0.0215,840,0.01536,840,0.01966,840,0.73709,840,0.41737,840,0.04436,840,0.02234
838,0.14744,838,0.02176,838,0.0155,838,0.01981,838,0.74227,838,0.42209,838,0.04494,838,0.02259
836,0.14946,836,0.02198,836,0.01557,836,0.01995,836,0.74761,836,0.42693,836,0.04551,836,0.02274
834,0.15166,834,0.02228,834,0.01595,834,0.02011,834,0.75294,834,0.43185,834,0.04616,834,0.02301
832,0.15337,832,0.02249,832,0.01609,832,0.02022,832,0.75814,832,0.43671,832,0.04669,832,0.02319
830,0.1553,830,0.02264,830,0.01593,830,0.02027,830,0.76349,830,0.44153,830,0.04712,830,0.02319
828,0.15737,828,0.02287,828,0.01607,828,0.02041,828,0.76889,828,0.44662,828,0.04774,828,0.02342
826,0.15922,826,0.023,826,0.01606,826,0.02047,826,0.774,826,0.45142,826,0.0481,826,0.02333
824,0.16183,824,0.02339,824,0.01648,824,0.02068,824,0.77978,824,0.45704,824,0.04902,824,0.02386
822,0.16369,822,0.02351,822,0.01646,822,0.02075,822,0.78518,822,0.46217,822,0.04944,822,0.02374
820,0.16624,820,0.02393,820,0.01676,820,0.02094,820,0.79074,820,0.46772,820,0.04972,820,0.02416
818,0.16856,818,0.02423,818,0.0169,818,0.02109,818,0.79635,818,0.47327,818,0.05084,818,0.02436
816,0.17058,816,0.02437,816,0.01685,816,0.02114,816,0.80181,816,0.4786,816,0.05141,816,0.02436
814,0.17298,814,0.02466,814,0.01697,814,0.02126,814,0.80738,814,0.48423,814,0.05212,814,0.02452
812,0.17529,812,0.02491,812,0.01709,812,0.02138,812,0.81298,812,0.4899,812,0.05276,812,0.02478
810,0.17801,810,0.02522,810,0.01736,810,0.02155,810,0.81866,810,0.49579,810,0.05356,810,0.02488
808,0.18061,808,0.02551,808,0.01752,808,0.0217,808,0.82447,808,0.50178,808,0.05438,808,0.02514
806,0.18324,806,0.02585,806,0.01776,806,0.02183,806,0.83032,806,0.50783,806,0.05535,806,0.02529
804,0.18533,804,0.02596,804,0.01751,804,0.02179,804,0.83567,804,0.51332,804,0.05551,804,0.02483
802,0.18843,802,0.02638,802,0.01779,802,0.02197,802,0.84158,802,0.51967,802,0.05636,802,0.02511
800,0.191,800,0.02656,800,0.01792,800,0.02211,800,0.84743,800,0.52599,800,0.05716,800,0.02542
798,0.19349,798,0.02685,798,0.01789,798,0.02203,798,0.84948,798,0.53038,798,0.05807,798,0.0256
796,0.19708,796,0.02744,796,0.01841,796,0.02249,796,0.8551,796,0.53699,796,0.05893,796,0.02646
794,0.19859,794,0.0274,794,0.01809,794,0.02226,794,0.86042,794,0.54324,794,0.05908,794,0.0256
792,0.20225,792,0.02789,792,0.01829,792,0.02259,792,0.86682,792,0.5502,792,0.06022,792,0.02593
790,0.20477,790,0.02813,790,0.01838,790,0.02249,790,0.87255,790,0.55621,790,0.06081,790,0.02598
788,0.2089,788,0.02871,788,0.01906,788,0.02291,788,0.87854,788,0.56373,788,0.06214,788,0.02646
786,0.21127,786,0.02901,786,0.01908,786,0.02303,786,0.88455,786,0.57055,786,0.06298,786,0.02675
784,0.215,784,0.02922,784,0.01907,784,0.02301,784,0.89016,784,0.57731,784,0.0637,784,0.02672
782,0.21826,782,0.02959,782,0.01926,782,0.02322,782,0.89654,782,0.58466,782,0.06463,782,0.02704
780,0.22064,780,0.02962,780,0.01882,780,0.02316,780,0.90173,780,0.59113,780,0.06468,780,0.02604
778,0.22475,778,0.03028,778,0.01952,778,0.02346,778,0.90833,778,0.59915,778,0.06709,778,0.02656
776,0.2286,776,0.03086,776,0.0198,776,0.02365,776,0.91434,776,0.60669,776,0.0681,776,0.02726
774,0.2322,774,0.03124,774,0.02001,774,0.02379,774,0.92028,774,0.61411,774,0.06886,774,0.02718
772,0.23629,772,0.03159,772,0.02014,772,0.02393,772,0.9266,772,0.62158,772,0.06993,772,0.02721
770,0.23999,770,0.03204,770,0.02037,770,0.02408,770,0.93257,770,0.62975,770,0.07088,770,0.02715
768,0.24383,768,0.03239,768,0.02059,768,0.02421,768,0.93874,768,0.63754,768,0.07181,768,0.0273
766,0.24853,766,0.03303,766,0.02117,766,0.02448,766,0.94534,766,0.64589,766,0.07311,766,0.02778
764,0.25229,764,0.03353,764,0.02122,764,0.02471,764,0.95118,764,0.65406,764,0.07455,764,0.02782
762,0.2563,762,0.03397,762,0.02158,762,0.02496,762,0.95747,762,0.66274,762,0.076,762,0.02775
760,0.26107,760,0.03471,760,0.02192,760,0.02512,760,0.96401,760,0.67119,760,0.07769,760,0.0284
758,0.26565,758,0.03498,758,0.02184,758,0.0252,758,0.96993,758,0.67935,758,0.07869,758,0.02844
756,0.27024,756,0.03542,756,0.02215,756,0.02542,756,0.97595,756,0.68837,756,0.07986,756,0.02838
754,0.27482,754,0.03605,754,0.02255,754,0.02561,754,0.98249,754,0.69724,754,0.08153,754,0.02858
752,0.27993,752,0.03672,752,0.02284,752,0.02597,752,0.98898,752,0.70663,752,0.08298,752,0.0288
750,0.28515,750,0.0373,750,0.02309,750,0.02617,750,0.9954,750,0.7158,750,0.08442,750,0.029
748,0.29052,748,0.03781,748,0.02332,748,0.02639,748,1.00146,748,0.72525,748,0.08582,748,0.0288
746,0.29597,746,0.03869,746,0.02371,746,0.02672,746,1.00793,746,0.73535,746,0.08754,746,0.02907
744,0.30134,744,0.03932,744,0.02414,744,0.02704,744,1.01433,744,0.745,744,0.08926,744,0.02937
742,0.30749,742,0.04007,742,0.02463,742,0.02746,742,1.02108,742,0.75523,742,0.09125,742,0.03
740,0.31326,740,0.04076,740,0.0249,740,0.02775,740,1.0272,740,0.76545,740,0.09284,740,0.03018
738,0.3196,738,0.04164,738,0.02548,738,0.02803,738,1.03392,738,0.77603,738,0.09505,738,0.03032
736,0.32596,736,0.04216,736,0.0257,736,0.02841,736,1.0404,736,0.78678,736,0.09692,736,0.03043
734,0.33269,734,0.04324,734,0.02632,734,0.02887,734,1.04686,734,0.79756,734,0.099,734,0.03089
732,0.33938,732,0.04412,732,0.02652,732,0.02918,732,1.05325,732,0.80886,732,0.10108,732,0.0309
730,0.34652,730,0.04466,730,0.02702,730,0.02961,730,1.05987,730,0.82016,730,0.10321,730,0.03131
728,0.35421,728,0.04647,728,0.02782,728,0.03021,728,1.0666,728,0.83217,728,0.10588,728,0.03182
726,0.36232,726,0.04748,726,0.02869,726,0.03077,726,1.07342,726,0.84451,726,0.1083,726,0.03224
724,0.37122,724,0.04851,724,0.02938,724,0.03137,724,1.07992,724,0.85688,724,0.11118,724,0.03273
722,0.37856,722,0.04964,722,0.02995,722,0.03192,722,1.08654,722,0.86936,722,0.11382,722,0.0331
720,0.38884,720,0.0511,720,0.03075,720,0.03279,720,1.09332,720,0.88258,720,0.11759,720,0.03397
718,0.39712,718,0.05234,718,0.03125,718,0.03324,718,1.09963,718,0.89535,718,0.11987,718,0.03337
716,0.40829,716,0.05427,716,0.03267,716,0.03429,716,1.10686,716,0.91024,716,0.12435,716,0.03521
714,0.41862,714,0.05564,714,0.03333,714,0.03504,714,1.11336,714,0.92388,714,0.12765,714,0.03499
712,0.43059,712,0.05774,712,0.03474,712,0.03622,712,1.12027,712,0.93895,712,0.13191,712,0.03606
710,0.44254,710,0.05986,710,0.03594,710,0.03734,710,1.12697,710,0.95446,710,0.13626,710,0.03693
708,0.45534,708,0.0621,708,0.03745,708,0.03858,708,1.13393,708,0.96993,708,0.14121,708,0.03715
706,0.4696,706,0.06497,706,0.03957,706,0.04019,706,1.1405,706,0.98664,706,0.14686,706,0.03881
704,0.48447,704,0.06798,704,0.04143,704,0.04183,704,1.14736,704,1.00342,704,0.15275,704,0.04013
702,0.50053,702,0.07124,702,0.04338,702,0.04366,702,1.15362,702,1.02068,702,0.1596,702,0.04092
700,0.51795,700,0.07501,700,0.04599,700,0.04568,700,1.15983,700,1.03822,700,0.16682,700,0.04211
698,0.53718,698,0.07944,698,0.04893,698,0.04807,698,1.16578,698,1.05669,698,0.17549,698,0.04383
696,0.55768,696,0.08442,696,0.05243,696,0.05089,696,1.17125,696,1.07511,696,0.18508,696,0.04563
694,0.57987,694,0.09028,694,0.0561,694,0.05405,694,1.17633,694,1.09382,694,0.19594,694,0.0474
692,0.60432,692,0.09711,692,0.06089,692,0.05772,692,1.18083,692,1.11251,692,0.20838,692,0.04925
690,0.63079,690,0.10522,690,0.06641,690,0.06194,690,1.1843,690,1.13076,690,0.22302,690,0.05157
688,0.6595,688,0.11478,688,0.07301,688,0.06686,688,1.18681,688,1.14838,688,0.23993,688,0.05421
686,0.69026,686,0.12631,686,0.08078,686,0.07268,686,1.18767,686,1.16407,686,0.26,686,0.05719
684,0.72212,684,0.13992,684,0.09009,684,0.07941,684,1.18691,684,1.17706,684,0.28274,684,0.06096
682,0.75423,682,0.15558,682,0.10062,682,0.08696,682,1.18364,682,1.18544,682,0.30804,682,0.06449
680,0.78381,680,0.17354,680,0.11292,680,0.09575,680,1.17823,680,1.18865,680,0.33639,680,0.06877
678,0.80843,678,0.19317,678,0.12666,678,0.10549,678,1.17014,678,1.18612,678,0.36555,678,0.07373
676,0.82536,676,0.21332,676,0.14102,676,0.11599,676,1.1596,676,1.17669,676,0.39258,676,0.07861
674,0.83451,674,0.23286,674,0.15609,674,0.12743,674,1.1472,674,1.16268,674,0.41642,674,0.08449
672,0.83507,672,0.25052,672,0.17086,672,0.13945,672,1.13355,672,1.14435,672,0.43534,672,0.09155
670,0.82817,670,0.26453,670,0.18405,670,0.15146,670,1.11923,670,1.12377,670,0.44631,670,0.09887
668,0.81635,668,0.27457,668,0.19534,668,0.16308,668,1.10586,668,1.10336,668,0.45125,668,0.10654
666,0.80183,666,0.28059,666,0.20397,666,0.17362,666,1.09437,666,1.08451,666,0.45097,666,0.11416
664,0.78562,664,0.28258,664,0.20932,664,0.18256,664,1.0847,664,1.06778,664,0.44609,664,0.12171
662,0.771,662,0.28147,662,0.21225,662,0.18928,662,1.07791,662,1.05478,662,0.43897,662,0.12964
660,0.75748,660,0.27743,660,0.21162,660,0.19303,660,1.07324,660,1.04462,660,0.43017,660,0.13712
658,0.74642,658,0.27214,658,0.2089,658,0.19406,658,1.07057,658,1.03783,658,0.42149,658,0.14261
656,0.73835,656,0.26674,656,0.20533,656,0.19334,656,1.06977,656,1.03407,656,0.41337,656,0.14699
654,0.73279,654,0.26184,654,0.20172,654,0.19171,654,1.07086,654,1.03338,654,0.40726,654,0.1506
652,0.73073,652,0.2578,652,0.19856,652,0.18974,652,1.07338,652,1.03508,652,0.40323,652,0.15269
650,0.73027,650,0.25455,650,0.19563,650,0.18774,650,1.07693,650,1.03885,650,0.39963,650,0.15347
648,0.73322,648,0.25244,648,0.19364,648,0.18608,648,1.08139,648,1.04505,648,0.39823,648,0.15395
646,0.73893,646,0.25195,646,0.1929,646,0.18517,646,1.08667,646,1.05303,646,0.39899,646,0.15473
644,0.74641,644,0.25242,644,0.19294,644,0.18492,644,1.09189,644,1.06175,644,0.40128,644,0.15517
642,0.75513,642,0.25397,642,0.19363,642,0.18546,642,1.09694,642,1.07072,642,0.40521,642,0.15592
640,0.76625,640,0.2569,640,0.19565,640,0.18699,640,1.10223,640,1.08066,640,0.41103,640,0.15752
638,0.77851,638,0.26073,638,0.19849,638,0.18932,638,1.10678,638,1.09043,638,0.41805,638,0.15968
636,0.79063,636,0.26524,636,0.20146,636,0.19218,636,1.11044,636,1.09918,636,0.42542,636,0.16167
634,0.80366,634,0.27089,634,0.20564,634,0.19588,634,1.11388,634,1.10792,634,0.43497,634,0.16428
632,0.81793,632,0.27754,632,0.21054,632,0.20042,632,1.11698,632,1.11623,632,0.44586,632,0.16788
630,0.83248,630,0.28507,630,0.21651,630,0.20568,630,1.1194,630,1.12366,630,0.45741,630,0.17231
628,0.84656,628,0.29352,628,0.22282,628,0.2116,628,1.12104,628,1.12987,628,0.46996,628,0.17686
626,0.86082,626,0.30282,626,0.23011,626,0.21836,626,1.12208,626,1.13545,626,0.48366,626,0.18261
624,0.87427,624,0.31292,624,0.23794,624,0.22565,624,1.12247,624,1.13951,624,0.4977,624,0.18856
622,0.88699,622,0.32365,622,0.24634,622,0.23342,622,1.12177,622,1.14197,622,0.51204,622,0.19519
620,0.89839,620,0.33489,620,0.25525,620,0.24166,620,1.12044,620,1.14285,620,0.52642,620,0.20218
618,0.90672,618,0.3464,618,0.26466,618,0.25028,618,1.11804,618,1.14215,618,0.54088,618,0.2097
616,0.91421,616,0.35761,616,0.27406,616,0.2591,616,1.11475,616,1.13931,616,0.55415,616,0.217
614,0.91849,614,0.36798,614,0.28287,614,0.26725,614,1.11022,614,1.13454,614,0.56418,614,0.2239
612,0.91945,612,0.37691,612,0.29103,612,0.2748,612,1.10508,612,1.12795,612,0.57359,612,0.23083
610,0.91724,610,0.3849,610,0.29812,610,0.28137,610,1.09916,610,1.12007,610,0.58004,610,0.23711
608,0.9126,608,0.38996,608,0.3033,608,0.28639,608,1.09285,608,1.11118,608,0.58298,608,0.24217
606,0.90401,606,0.39208,606,0.30582,606,0.28928,606,1.08563,606,1.1004,606,0.58209,606,0.24567
604,0.89438,604,0.39183,604,0.30656,604,0.29041,604,1.07903,604,1.09022,604,0.57871,604,0.2479
602,0.8838,602,0.38924,602,0.30515,602,0.28966,602,1.07293,602,1.08043,602,0.57264,602,0.24887
600,0.87361,600,0.38527,600,0.30279,600,0.28755,600,1.06836,600,1.07248,600,0.56556,600,0.24896
598,0.86474,598,0.38023,598,0.29921,598,0.28449,598,1.06535,598,1.0666,598,0.55796,598,0.24828
596,0.85844,596,0.37486,596,0.29528,596,0.28072,596,1.06404,596,1.06348,596,0.55076,596,0.24689
594,0.85263,594,0.36935,594,0.29044,594,0.27657,594,1.06423,594,1.06189,594,0.54413,594,0.24486
592,0.84887,592,0.36407,592,0.28568,592,0.27241,592,1.06522,592,1.06195,592,0.53826,592,0.24217
590,0.84936,590,0.36005,590,0.28235,590,0.26889,590,1.06782,590,1.06512,590,0.5347,590,0.24045
588,0.85104,588,0.35689,588,0.27963,588,0.26574,588,1.07138,588,1.06963,588,0.53313,588,0.23891
586,0.85417,586,0.35434,586,0.27662,586,0.26305,586,1.07487,586,1.07444,586,0.53171,586,0.23714
584,0.85942,584,0.35252,584,0.27408,584,0.26054,584,1.07845,584,1.08007,584,0.53188,584,0.23499
582,0.86605,582,0.35174,582,0.27243,582,0.25889,582,1.08239,582,1.08642,582,0.53366,582,0.23393
580,0.87125,580,0.35144,580,0.27098,580,0.25712,580,1.08602,580,1.09226,580,0.53638,580,0.2326
578,0.87844,578,0.35166,578,0.27001,578,0.25589,578,1.08936,578,1.09817,578,0.53992,578,0.23183
576,0.88754,576,0.3527,576,0.2698,576,0.25517,576,1.0931,576,1.10453,576,0.5439,576,0.23101
574,0.89474,574,0.35421,574,0.26983,574,0.25466,574,1.09662,574,1.11073,574,0.54863,574,0.23063
572,0.90527,572,0.35629,572,0.27015,572,0.25458,572,1.10005,572,1.11683,572,0.55406,572,0.23133
570,0.91298,570,0.35854,570,0.27073,570,0.25454,570,1.10296,570,1.12261,570,0.56008,570,0.23102
568,0.92152,568,0.36093,568,0.27165,568,0.25473,568,1.10523,568,1.12769,568,0.56568,568,0.23118
566,0.93046,566,0.36397,566,0.2726,566,0.25516,566,1.10821,566,1.13291,566,0.57213,566,0.23127
564,0.94032,564,0.36741,564,0.27416,564,0.25594,564,1.11151,564,1.13896,564,0.57958,564,0.23233
562,0.95022,562,0.37116,562,0.27597,562,0.25697,562,1.11464,562,1.1447,562,0.58731,562,0.23274
560,0.95985,560,0.37547,560,0.27802,560,0.25816,560,1.1177,560,1.15063,560,0.59538,560,0.23348
558,0.97111,558,0.37991,558,0.28019,558,0.25963,558,1.12109,558,1.15651,558,0.60401,558,0.23514
556,0.98203,556,0.38447,556,0.28279,556,0.26127,556,1.12398,556,1.16181,556,0.61262,556,0.23594
554,0.99283,554,0.38931,554,0.28542,554,0.26284,554,1.1269,554,1.16718,554,0.6217,554,0.23689
552,1.00314,552,0.39463,552,0.28803,552,0.26477,552,1.12997,552,1.17277,552,0.63137,552,0.23837
550,1.01492,550,0.40058,550,0.29145,550,0.26723,550,1.1333,550,1.17861,550,0.64185,550,0.24029
548,1.02596,548,0.40612,548,0.29455,548,0.26938,548,1.13588,548,1.18334,548,0.65195,548,0.24125
546,1.03868,546,0.41259,546,0.29835,546,0.27213,546,1.13924,546,1.18943,546,0.6635,546,0.24338
544,1.05008,544,0.41914,544,0.30215,544,0.27483,544,1.14223,544,1.19449,544,0.67461,544,0.24559
542,1.06199,542,0.42627,542,0.30639,542,0.27791,542,1.14567,542,1.20001,542,0.68702,542,0.24762
540,1.07474,540,0.43393,540,0.31102,540,0.28126,540,1.14885,540,1.20558,540,0.69957,540,0.25021
538,1.08732,538,0.44201,538,0.31575,538,0.28477,538,1.15226,538,1.21061,538,0.7129,538,0.25277
536,1.10007,536,0.45027,536,0.32053,536,0.28836,536,1.15532,536,1.21554,536,0.72648,536,0.25563
534,1.11342,534,0.45931,534,0.32609,534,0.29245,534,1.15877,534,1.2212,534,0.74115,534,0.25853
532,1.12621,532,0.46865,532,0.33165,532,0.29664,532,1.16213,532,1.22623,532,0.75601,532,0.26123
530,1.13981,530,0.47875,530,0.33797,530,0.30133,530,1.16563,530,1.23114,530,0.77184,530,0.26487
528,1.15327,528,0.48929,528,0.34452,528,0.30605,528,1.16893,528,1.23615,528,0.78822,528,0.26819
526,1.16697,526,0.50042,526,0.35157,526,0.31128,526,1.17246,526,1.24126,526,0.80545,526,0.27213
524,1.18059,524,0.51234,524,0.35873,524,0.31684,524,1.1759,524,1.246,524,0.82326,524,0.27598
522,1.19451,522,0.52491,522,0.36685,522,0.32278,522,1.17959,522,1.25098,522,0.8419,522,0.28059
520,1.20821,520,0.53824,520,0.37526,520,0.32908,520,1.18303,520,1.25532,520,0.86106,520,0.28482
518,1.22243,518,0.55287,518,0.38485,518,0.33606,518,1.18685,518,1.26013,518,0.88161,518,0.28946
516,1.23645,516,0.56802,516,0.39468,516,0.34337,516,1.19087,516,1.26469,516,0.90265,516,0.29482
514,1.24994,514,0.58397,514,0.40504,514,0.35108,514,1.19425,514,1.26886,514,0.92406,514,0.29971
512,1.26371,512,0.60129,512,0.41663,512,0.35954,512,1.19805,512,1.27329,512,0.9468,512,0.30552
510,1.27706,510,0.61949,510,0.42876,510,0.36855,510,1.2019,510,1.27763,510,0.97006,510,0.31163
508,1.29051,508,0.63909,508,0.44228,508,0.37836,508,1.2057,508,1.28161,508,0.99431,508,0.31796
506,1.30284,506,0.6594,506,0.4564,506,0.38864,506,1.20926,506,1.28566,506,1.0185,506,0.3243
504,1.31536,504,0.68113,504,0.47064,504,0.39997,504,1.21248,504,1.28932,504,1.04369,504,0.33165
502,1.32689,502,0.70393,502,0.48745,502,0.41183,502,1.21619,502,1.29307,502,1.069,502,0.33937
500,1.33796,500,0.7279,500,0.50479,500,0.4248,500,1.21928,500,1.2964,500,1.09455,500,0.34712
498,1.34807,498,0.75295,498,0.52388,498,0.4387,498,1.22257,498,1.29962,498,1.12019,498,0.35581
496,1.35799,496,0.77991,496,0.54376,496,0.45392,496,1.22552,496,1.30271,496,1.14591,496,0.36536
494,1.3663,494,0.80704,494,0.56562,494,0.46987,494,1.22786,494,1.30552,494,1.17055,494,0.37583
492,1.37405,492,0.8348,492,0.58786,492,0.48709,492,1.23009,492,1.30746,492,1.19449,492,0.38569
490,1.38076,490,0.86297,490,0.6115,490,0.50519,490,1.23173,490,1.30962,490,1.21757,490,0.39739
488,1.38582,488,0.89157,488,0.63601,488,0.52469,488,1.2331,488,1.311,488,1.23911,488,0.40923
486,1.39049,486,0.91999,486,0.66178,486,0.54525,486,1.23409,486,1.31204,486,1.2594,486,0.42213
484,1.39456,484,0.94793,484,0.68818,484,0.56686,484,1.2351,484,1.3133,484,1.27824,484,0.43642
482,1.39726,482,0.97509,482,0.71457,482,0.5893,482,1.23529,482,1.31388,482,1.29484,482,0.45059
480,1.3997,480,1.00201,480,0.74163,480,0.61273,480,1.23525,480,1.31395,480,1.31048,480,0.46579
478,1.40154,478,1.02837,478,0.76932,478,0.6371,478,1.23522,478,1.31392,478,1.32503,478,0.48192
476,1.40325,476,1.05426,476,0.79745,476,0.6626,476,1.23492,476,1.31427,476,1.33896,476,0.49946
474,1.40581,474,1.08007,474,0.82653,474,0.68942,474,1.23518,474,1.31496,474,1.35218,474,0.51885
472,1.40616,472,1.10496,472,0.85508,472,0.71644,472,1.2342,472,1.31415,472,1.36359,472,0.53761
470,1.40633,470,1.12911,470,0.88393,470,0.74441,470,1.23347,470,1.31317,470,1.37431,470,0.55761
468,1.40645,468,1.15296,468,0.91305,468,0.77335,468,1.23234,468,1.31231,468,1.38411,468,0.57914
466,1.40597,466,1.17617,466,0.94292,466,0.80333,466,1.23091,466,1.31137,466,1.39289,466,0.60226
464,1.40465,464,1.19814,464,0.97275,464,0.83369,464,1.22929,464,1.30963,464,1.40022,464,0.62605
462,1.40197,462,1.21827,462,1.00052,462,0.86423,462,1.2266,462,1.3066,462,1.40558,462,0.65035
460,1.39944,460,1.23718,460,1.02896,460,0.8953,460,1.22409,460,1.30409,460,1.41001,460,0.67643
458,1.3959,458,1.25418,458,1.05651,458,0.92688,458,1.22117,458,1.30069,458,1.41248,458,0.70386
456,1.39104,456,1.26929,456,1.08345,456,0.95832,456,1.21771,456,1.29651,456,1.41311,456,0.73207
454,1.38528,454,1.28213,454,1.10743,454,0.98906,454,1.21376,454,1.29183,454,1.41222,454,0.76131
452,1.37873,452,1.29203,452,1.12947,452,1.0188,452,1.20924,452,1.28638,452,1.40953,452,0.79127
450,1.37213,450,1.30024,450,1.14973,450,1.0475,450,1.2046,450,1.2808,450,1.40528,450,0.82275
448,1.36414,448,1.30548,448,1.16683,448,1.07396,448,1.20005,448,1.27471,448,1.39972,448,0.85433
446,1.35591,446,1.30852,446,1.18153,446,1.09864,446,1.19521,446,1.26824,446,1.39324,446,0.88652
444,1.34766,444,1.30979,444,1.19373,444,1.12096,444,1.19044,444,1.2618,444,1.38595,444,0.91856
442,1.33896,442,1.30959,442,1.20318,442,1.14102,442,1.18565,442,1.25541,442,1.3777,442,0.95076
440,1.33142,440,1.3084,440,1.21105,440,1.1585,440,1.1815,440,1.24935,440,1.3702,440,0.98175
438,1.32394,438,1.3067,438,1.21714,438,1.17388,438,1.17741,438,1.24399,438,1.36302,438,1.01218
436,1.31714,436,1.30457,436,1.22256,436,1.18732,436,1.17376,436,1.23898,436,1.35619,436,1.04197
434,1.31123,434,1.30334,434,1.22726,434,1.19914,434,1.1706,434,1.23477,434,1.35053,434,1.07053
432,1.30581,432,1.30247,432,1.23089,432,1.21008,432,1.16787,432,1.23082,432,1.34544,432,1.09797
430,1.30178,430,1.30181,430,1.23496,430,1.21953,430,1.16522,430,1.22755,430,1.3413,430,1.12341
428,1.29831,428,1.30197,428,1.23971,428,1.22828,428,1.16348,428,1.2246,428,1.33821,428,1.14753
426,1.29397,426,1.30296,426,1.2441,426,1.2363,426,1.16115,426,1.22165,426,1.33536,426,1.16907
424,1.2912,424,1.30462,424,1.25023,424,1.24462,424,1.15978,424,1.21962,424,1.33354,424,1.18992
422,1.28855,422,1.30715,422,1.25607,422,1.25212,422,1.15818,422,1.21727,422,1.33157,422,1.20794
420,1.28537,420,1.30965,420,1.26297,420,1.25962,420,1.15628,420,1.2148,420,1.33021,420,1.22502
418,1.2835,418,1.31295,418,1.27013,418,1.26799,418,1.15507,418,1.21321,418,1.32938,418,1.24093
416,1.28114,416,1.31645,416,1.27752,416,1.27623,416,1.15317,416,1.21108,416,1.32871,416,1.25555
414,1.27821,414,1.31964,414,1.28538,414,1.28503,414,1.15159,414,1.20854,414,1.32738,414,1.26896
412,1.27543,412,1.32353,412,1.29313,412,1.2945,412,1.14954,412,1.20641,412,1.32633,412,1.28295
410,1.2724,410,1.32668,410,1.30157,410,1.30426,410,1.14733,410,1.20351,410,1.32469,410,1.2958
408,1.26903,408,1.32951,408,1.31,408,1.31442,408,1.14564,408,1.20076,408,1.323,408,1.30886
406,1.2642,406,1.33183,406,1.31761,406,1.32377,406,1.14247,406,1.19696,406,1.3197,406,1.32119
404,1.26044,404,1.33367,404,1.32468,404,1.33404,404,1.13972,404,1.19356,404,1.31665,404,1.33391
402,1.25494,402,1.33401,402,1.33107,402,1.34295,402,1.13631,402,1.18935,402,1.31255,402,1.34585
400,1.24923,400,1.33295,400,1.33602,400,1.3511,400,1.13294,400,1.18445,400,1.30649,400,1.35685
398,1.2427,398,1.33092,398,1.33903,398,1.35716,398,1.12891,398,1.17935,398,1.30048,398,1.36677
396,1.23537,396,1.32707,396,1.34146,396,1.3618,396,1.12451,396,1.17392,396,1.29292,396,1.37582
394,1.22679,394,1.32159,394,1.34078,394,1.36462,394,1.11994,394,1.1674,394,1.28436,394,1.38287
392,1.21763,392,1.31422,392,1.33779,392,1.36525,392,1.11447,392,1.16033,392,1.27351,392,1.38756
390,1.20777,390,1.30466,390,1.3319,390,1.36365,390,1.10903,390,1.15228,390,1.26248,390,1.39038
388,1.1956,388,1.29261,388,1.32508,388,1.35847,388,1.10252,388,1.14362,388,1.24913,388,1.38882
386,1.18386,386,1.27934,386,1.31357,386,1.34976,386,1.09592,386,1.13488,386,1.23496,386,1.38474
384,1.17127,384,1.26409,384,1.3011,384,1.33858,384,1.08919,384,1.1255,384,1.21988,384,1.37779
382,1.15844,382,1.2481,382,1.2856,382,1.32503,382,1.08203,382,1.11563,382,1.20389,382,1.36666
380,1.1449,380,1.23016,380,1.26853,380,1.3079,380,1.07454,380,1.10538,380,1.18748,380,1.35242
378,1.13104,378,1.21187,378,1.24987,378,1.28941,378,1.0673,378,1.09523,378,1.17052,378,1.33505
376,1.11728,376,1.19344,376,1.23061,376,1.26881,376,1.06017,376,1.08515,376,1.15388,376,1.31498
374,1.10448,374,1.17476,374,1.21052,374,1.24777,374,1.05282,374,1.07562,374,1.13761,374,1.29276
372,1.09158,372,1.15594,372,1.19016,372,1.22542,372,1.04571,372,1.06578,372,1.12144,372,1.2691
370,1.0777,370,1.13748,370,1.16976,370,1.20341,370,1.03874,370,1.05621,370,1.10549,370,1.24383
368,1.06704,368,1.11913,368,1.14945,368,1.18001,368,1.0319,368,1.04716,368,1.08963,368,1.21937
366,1.05481,366,1.10082,366,1.12853,366,1.1566,366,1.02592,366,1.0377,366,1.07428,366,1.19215
364,1.04355,364,1.08292,364,1.10855,364,1.13393,364,1.01902,364,1.02988,364,1.05965,364,1.16646
362,1.03224,362,1.06698,362,1.08875,362,1.11303,362,1.01411,362,1.02155,362,1.0466,362,1.14159
360,1.02307,360,1.05058,360,1.07073,360,1.09097,360,1.009,360,1.01465,360,1.03417,360,1.11668
358,1.01447,358,1.03671,358,1.05323,358,1.07072,358,1.00432,358,1.00839,358,1.02396,358,1.0935
356,1.00787,356,1.02526,356,1.03829,356,1.05292,356,1.00114,356,1.00318,356,1.01354,356,1.07163
354,1.00185,354,1.01535,354,1.02488,354,1.03696,354,0.99804,354,0.99999,354,1.00602,354,1.05262
352,0.99774,352,1.0066,352,1.01355,352,1.02314,352,0.99677,352,0.99866,352,1.00155,352,1.03632
350,0.99617,350,1.00049,350,1.00573,350,1.0124,350,0.99592,350,0.99501,350,0.99643,350,1.02223
348,0.99656,348,0.99836,348,1.00057,348,1.00435,348,0.99728,348,0.99682,348,0.99625,348,1.0098
346,0.99927,346,0.99877,346,0.9998,346,1.00051,346,0.99905,346,0.99974,346,0.99913,346,1.00317
344,1.00217,344,1.00223,344,1.00168,344,0.99988,344,1.00202,344,1.00214,344,1.00248,344,0.99722
342,1.00726,342,1.00827,342,1.00693,342,1.00399,342,1.00442,342,1.00675,342,1.0083,342,0.99687
340,1.01262,340,1.01569,340,1.01544,340,1.01181,340,1.0071,340,1.00908,340,1.01409,340,0.99863
338,1.01562,338,1.0239,338,1.02422,338,1.02154,338,1.00955,338,1.01194,338,1.02129,338,1.00337
336,1.01958,336,1.03167,336,1.03474,336,1.03202,336,1.01079,336,1.01447,336,1.02518,336,1.01163
334,1.0218,334,1.03704,334,1.04405,334,1.04346,334,1.01277,334,1.01595,334,1.03015,334,1.02137
332,1.02426,332,1.04384,332,1.05192,332,1.05475,332,1.01378,332,1.01822,332,1.0336,332,1.03131
330,1.02754,330,1.0501,330,1.0604,330,1.06598,330,1.0161,330,1.02123,330,1.03828,330,1.04364
328,1.02956,328,1.05612,328,1.06804,328,1.07679,328,1.0174,328,1.02247,328,1.04207,328,1.05631
326,1.03209,326,1.06235,326,1.077,326,1.08874,326,1.01886,326,1.02388,326,1.04587,326,1.07143
324,1.03446,324,1.06777,324,1.08584,324,1.10023,324,1.01907,324,1.02501,324,1.04906,324,1.08754
322,1.0363,322,1.07373,322,1.09455,322,1.11379,322,1.02019,322,1.02665,322,1.05227,322,1.10693
320,1.03672,320,1.08,320,1.10336,320,1.12721,320,1.02087,320,1.02744,320,1.05524,320,1.12859
318,1.03884,318,1.08566,318,1.11218,318,1.14153,318,1.02227,318,1.02933,318,1.05823,318,1.15484
316,1.03968,316,1.09147,316,1.12196,316,1.15716,316,1.02335,316,1.02998,316,1.06104,316,1.18341
314,1.04175,314,1.09736,314,1.13167,314,1.1734,314,1.02406,314,1.03142,314,1.0643,314,1.21651
312,1.04479,312,1.10336,312,1.14234,312,1.18927,312,1.02598,312,1.03386,312,1.06779,312,1.25275
310,1.04686,310,1.11071,310,1.15296,310,1.20603,310,1.02814,310,1.03567,310,1.072,310,1.28939
308,1.04974,308,1.11749,308,1.16367,308,1.22168,308,1.0301,308,1.03778,308,1.07585,308,1.3256
306,1.05241,306,1.12469,306,1.17378,306,1.23721,306,1.03226,306,1.04103,306,1.08043,306,1.36179
304,1.05569,304,1.13244,304,1.18527,304,1.25288,304,1.03472,304,1.0438,304,1.085,304,1.39508
302,1.059,302,1.13944,302,1.19594,302,1.26742,302,1.03696,302,1.04639,302,1.08943,302,1.42718
300,1.06224,300,1.14829,300,1.20739,300,1.28193,300,1.03959,300,1.05005,300,1.09428,300,1.45657
298,1.06542,298,1.15533,298,1.21908,298,1.29564,298,1.04241,298,1.05303,298,1.0996,298,1.48302
296,1.06893,296,1.16345,296,1.23024,296,1.30889,296,1.04444,296,1.05691,296,1.10345,296,1.50724
294,1.07288,294,1.17082,294,1.24042,294,1.32057,294,1.04745,294,1.05943,294,1.10836,294,1.52838
292,1.07546,292,1.17837,292,1.25206,292,1.33335,292,1.04952,292,1.06276,292,1.11288,292,1.54755
290,1.07915,290,1.18647,290,1.26403,290,1.34701,290,1.05183,290,1.06588,290,1.11722,290,1.56551
288,1.08281,288,1.19559,288,1.27588,288,1.35956,288,1.05441,288,1.0691,288,1.12257,288,1.5818
286,1.08699,286,1.20315,286,1.28833,286,1.37458,286,1.05683,286,1.07268,286,1.12733,286,1.59806
284,1.09101,284,1.21194,284,1.30172,284,1.39065,284,1.05946,284,1.07602,284,1.13295,284,1.61405
282,1.09437,282,1.22028,282,1.31502,282,1.40523,282,1.06097,282,1.07927,282,1.13743,282,1.63035
280,1.09725,280,1.22756,280,1.32803,280,1.42243,280,1.0624,280,1.08135,280,1.14165,280,1.64828
278,1.09888,278,1.23379,278,1.33883,278,1.43694,278,1.06305,278,1.08264,278,1.14358,278,1.66598
276,1.09962,276,1.23831,276,1.34912,276,1.45197,276,1.06298,276,1.08378,276,1.14455,276,1.68559
274,1.09852,274,1.24025,274,1.35614,274,1.46377,274,1.06139,274,1.08296,274,1.14438,274,1.70401
272,1.09701,272,1.24136,272,1.36201,272,1.47566,272,1.05978,272,1.08145,272,1.14277,272,1.72513
270,1.09392,270,1.23962,270,1.36517,270,1.4837,270,1.05748,270,1.07949,270,1.13966,270,1.74588
268,1.08994,268,1.23664,268,1.36629,268,1.48899,268,1.05467,268,1.07639,268,1.13491,268,1.76529
266,1.08501,266,1.23193,266,1.3652,266,1.49413,266,1.05159,266,1.07273,266,1.12953,266,1.78594
264,1.08063,264,1.22694,264,1.36295,264,1.49661,264,1.04873,264,1.06918,264,1.12325,264,1.8077
262,1.07568,262,1.22007,262,1.35911,262,1.49849,262,1.04554,262,1.06562,262,1.11688,262,1.83055
260,1.07018,260,1.21297,260,1.3542,260,1.49827,260,1.04229,260,1.06204,260,1.11013,260,1.85413
258,1.0639,258,1.20437,258,1.34701,258,1.49543,258,1.03911,258,1.05723,258,1.10167,258,1.87772
256,1.05734,256,1.19413,256,1.33811,256,1.4909,256,1.0357,256,1.05275,256,1.09282,256,1.90265
254,1.04979,254,1.18303,254,1.32707,254,1.48252,254,1.03132,254,1.0475,254,1.08298,254,1.92893
252,1.04148,252,1.16968,252,1.31372,252,1.47346,252,1.02672,252,1.04176,252,1.072,252,1.95812
250,1.03361,250,1.15694,250,1.30006,250,1.4615,250,1.02273,250,1.03658,250,1.06127,250,1.99338
248,1.0255,248,1.14439,248,1.28543,248,1.44753,248,1.018,248,1.0307,248,1.05073,248,2.03502
246,1.01867,246,1.13239,246,1.27275,246,1.43363,246,1.01445,246,1.02621,246,1.04149,246,2.08441
244,1.01283,244,1.12208,244,1.26112,244,1.42232,244,1.01182,244,1.0226,244,1.03321,244,2.14387
242,1.00775,242,1.1125,242,1.25059,242,1.41092,242,1.00902,242,1.0192,242,1.02601,242,2.20866
240,1.00416,240,1.10535,240,1.24133,240,1.40186,240,1.00704,240,1.017,240,1.01979,240,2.28168
238,1.00083,238,1.09898,238,1.23428,238,1.39442,238,1.00536,238,1.01511,238,1.01523,238,2.35406
236,0.99785,236,1.09317,236,1.22829,236,1.38781,236,1.0037,236,1.01355,236,1.01058,236,2.42286
234,0.99488,234,1.08827,234,1.22295,234,1.38287,234,1.00203,234,1.01195,234,1.00686,234,2.48444
232,0.99226,232,1.08387,232,1.21745,232,1.37879,232,1.0002,232,1.00995,232,1.00298,232,2.53622
230,0.98976,230,1.07959,230,1.21311,230,1.37576,230,0.99808,230,1.00794,230,0.99913,230,2.57529
228,0.98593,228,1.07489,228,1.20761,228,1.37366,228,0.99565,228,1.00576,228,0.99519,228,2.60872
226,0.98203,226,1.07011,226,1.20311,226,1.37041,226,0.99335,226,1.00308,226,0.99063,226,2.63933
224,0.97862,224,1.06447,224,1.19705,224,1.36834,224,0.99104,224,0.99983,224,0.98596,224,2.67795
222,0.97528,222,1.05958,222,1.19149,222,1.36689,222,0.98864,222,0.99793,222,0.98117,222,2.73958
220,0.97136,220,1.05545,220,1.18587,220,1.36334,220,0.98665,220,0.99592,220,0.9771,220,2.83555
218,0.97007,218,1.05223,218,1.18173,218,1.36235,218,0.98624,218,0.99526,218,0.97495,218,2.9757
216,0.97026,216,1.05165,216,1.1797,216,1.36468,216,0.98618,216,0.99659,216,0.97369,216,3.15229
214,0.97161,214,1.05189,214,1.17942,214,1.36624,214,0.98715,214,0.99817,214,0.97497,214,3.36004
212,0.97254,212,1.05243,212,1.17806,212,1.36789,212,0.9876,212,1.00009,212,0.97476,212,3.55982
210,0.97464,210,1.05167,210,1.17303,210,1.36923,210,0.98901,210,1.00243,210,0.97433,210,3.74714
208,0.97389,208,1.04835,208,1.16379,208,1.36566,208,0.98861,208,1.00371,208,0.97161,208,3.87943
206,0.97104,206,1.03909,206,1.14529,206,1.35775,206,0.9888,206,1.00365,206,0.96609,206,3.95422
204,0.968,204,1.02783,204,1.12075,204,1.34234,204,0.98609,204,1.00177,204,0.9589,204,3.96725
202,0.96154,202,1.01397,202,1.08527,202,1.32094,202,0.98297,202,0.99762,202,0.94977,202,3.92168
200,0.96121,200,0.99994,200,1.04616,200,1.30031,200,0.98119,200,0.99687,200,0.94305,200,3.85978