File: example/MoS2 Ext - JOVE.csv
MoS2 F1,,MoS2 F2,,MoS2 F3,,MoS2 F4,,MoS2 F5,,MoS2 F6,,MoS2 F7,
Wavelength (nm),Ext,Wavelength (nm),Ext,Wavelength (nm),Ext,Wavelength (nm),Ext,Wavelength (nm),Ext,Wavelength (nm),Ext,Wavelength (nm),Ext
800,1.65176,800,2.8116,800,3.31032,800,4.68158,800,8.00866,800,10.27176,800,10.62323
799,1.47058,799,2.62322,799,3.31591,799,4.51876,799,7.98047,799,10.29421,799,10.51886
798,1.72737,798,2.99782,798,3.42607,798,4.67561,798,8.02088,798,10.43483,798,10.63763
797,1.54533,797,2.67805,797,3.43352,797,4.5792,797,7.95864,797,10.31088,797,10.85008
796,1.49737,796,3.11324,796,3.6181,796,4.35996,796,8.24203,796,10.40299,796,10.73789
795,1.78138,795,2.67834,795,3.55471,795,4.66994,795,8.15659,795,10.41688,795,10.88566
794,1.28725,794,2.56508,794,3.19767,794,4.52025,794,7.86783,794,10.54853,794,10.90129
793,1.41787,793,2.70712,793,3.41814,793,4.62233,793,8.32423,793,10.62044,793,11.07775
792,1.52675,792,2.73,792,3.41317,792,4.73099,792,8.15597,792,10.69963,792,11.0325
791,1.56564,791,2.53644,791,3.59744,791,4.71845,791,8.36839,791,10.9672,791,11.09286
790,1.79564,790,2.97695,790,3.55798,790,4.90366,790,8.39358,790,10.85329,790,11.15713
789,1.39166,789,2.6202,789,3.51711,789,4.63159,789,8.45932,789,10.97041,789,11.16772
788,1.50789,788,2.81045,788,3.6338,788,4.68323,788,8.60102,788,11.00652,788,11.33616
787,1.64672,787,2.86859,787,3.66005,787,4.68547,787,8.55349,787,11.07684,787,11.42788
786,1.37495,786,2.94846,786,3.54057,786,4.68009,786,8.6453,786,11.09703,786,11.59108
785,1.60654,785,2.75476,785,3.62898,785,4.85128,785,8.67336,785,11.2664,785,11.62357
784,1.75733,784,2.69604,784,3.78994,784,4.94456,784,8.79248,784,11.47766,784,11.99335
783,1.41197,783,2.39742,783,3.52644,783,4.62965,783,8.56559,783,11.44881,783,11.75262
782,1.681,782,2.67316,782,3.67,782,5.02202,782,8.84899,782,11.56101,782,11.94389
781,1.5004,781,2.52637,781,3.5805,781,4.87665,781,8.80471,781,11.57405,781,12.02492
780,1.45316,780,2.62552,780,3.41737,780,4.70308,780,8.75294,780,11.59542,780,12.21269
779,1.50083,779,2.49499,779,3.42141,779,4.95142,779,8.91584,779,11.71895,779,12.0459
778,1.70188,778,2.66769,778,3.61562,778,5.16276,778,8.96649,778,11.91696,778,12.35202
777,1.59415,777,2.85837,777,3.74489,777,4.97665,777,9.02162,777,11.92593,777,12.36786
776,1.51393,776,2.88802,776,3.50158,776,5.1338,776,9.11766,776,12.00276,776,12.52149
775,1.67279,775,2.9735,775,3.99239,775,5.28454,775,9.27919,775,12.21381,775,12.77116
774,1.6483,774,2.83506,774,3.68818,774,5.30409,774,9.29079,774,12.22749,774,12.79121
773,1.62238,773,2.91205,773,3.79833,773,5.31842,773,9.34119,773,12.32537,773,12.87379
772,1.72924,772,2.92702,772,3.97079,772,5.40155,772,9.57519,772,12.50468,772,13.13446
771,1.45503,771,2.77864,771,3.86172,771,5.20723,771,9.38297,771,12.38265,771,13.03595
770,1.5953,770,2.94731,770,3.80766,770,5.26992,770,9.61286,770,12.6063,770,13.28326
769,1.75747,769,2.83938,769,3.94873,769,5.24216,769,9.64628,769,12.67448,769,13.30506
768,1.72492,768,2.97177,768,3.94547,768,5.472,768,9.84486,768,12.79149,768,13.5716
767,1.75502,767,3.17267,767,4.078,767,5.62572,767,9.84012,767,13.01685,767,13.67237
766,1.87614,766,3.1036,766,4.17915,766,5.64796,766,10.03733,766,13.18654,766,13.70785
765,1.74062,765,2.95235,765,4.00498,765,5.65184,765,10.05242,765,13.10084,765,13.79165
764,1.80845,764,2.93824,764,3.97981,764,5.75796,764,10.13387,764,13.217,764,13.97366
763,1.78339,763,3.03927,763,4.13564,763,5.81094,763,10.24825,763,13.41832,763,14.08739
762,1.68431,762,2.87809,762,4.00466,762,5.55408,762,10.18688,762,13.429,762,14.23033
761,1.76554,761,2.96933,761,4.06712,761,5.68288,761,10.23453,761,13.61494,761,14.27393
760,1.87802,760,2.97177,760,4.1445,760,5.89049,760,10.46441,760,13.70769,760,14.42962
759,1.82473,759,3.07294,759,4.25745,759,5.88362,759,10.425,759,13.88112,759,14.65214
758,1.72348,758,2.9109,758,4.12352,758,5.82094,758,10.49036,758,13.91863,758,14.7089
757,1.51321,757,2.85463,757,3.96831,757,5.72646,757,10.47028,757,13.93455,757,14.82654
756,1.67005,756,3.09252,756,4.26848,756,5.92795,756,10.71076,756,14.13758,756,15.0465
755,1.62958,755,3.06848,755,4.20665,755,5.88496,755,10.76415,755,14.22585,755,15.16156
754,1.74681,754,3.10763,754,4.23244,754,5.98586,754,11.00651,754,14.39661,754,15.28671
753,1.86088,753,3.15138,753,4.32954,753,6.02108,753,11.04979,753,14.52697,753,15.47756
752,1.89515,752,3.1,752,4.37398,752,6.23405,752,11.17752,752,14.6084,752,15.63675
751,1.80255,751,3.09208,751,4.32985,751,6.1454,751,11.27556,751,14.73407,751,15.71922
750,1.72348,750,3.08071,750,4.39946,750,6.24868,750,11.33431,750,15.04791,750,15.92292
749,1.92669,749,3.37156,749,4.60828,749,6.38823,749,11.54174,749,15.26654,749,16.18267
748,1.82084,748,3.31572,748,4.48274,748,6.42375,748,11.55696,748,15.34957,748,16.28622
747,1.74797,747,3.19441,747,4.5396,747,6.43733,747,11.76152,747,15.40727,747,16.40129
746,1.86059,746,3.18476,746,4.67043,746,6.63821,746,11.85831,746,15.61693,746,16.61107
745,1.95953,745,3.20218,745,4.52873,745,6.59657,745,12.0181,745,15.66053,745,16.81025
744,1.89141,744,3.28075,744,4.71144,744,6.53747,744,12.05839,744,15.8128,744,16.93591
743,1.83366,743,3.14778,743,4.63236,743,6.55479,743,12.07984,743,16.00429,743,17.07216
742,1.84403,742,3.14015,742,4.58544,742,6.64254,742,12.2839,742,16.15721,742,17.2481
741,1.95103,741,3.33472,741,4.71129,741,6.92372,741,12.40365,741,16.40245,741,17.54148
740,1.94657,740,3.26291,740,4.86806,740,6.97372,740,12.54098,740,16.51486,740,17.73871
739,1.93879,739,3.18649,739,4.90224,739,7.06924,739,12.68106,739,16.7429,739,17.91856
738,1.92626,738,3.20405,738,4.81787,738,7.0979,738,12.75091,738,16.90735,738,18.10396
737,1.99482,737,3.29629,737,4.84801,737,7.12043,737,12.99576,737,17.03986,737,18.29934
736,1.96241,736,3.2678,736,4.86371,736,7.19759,736,13.10515,736,17.28691,736,18.49266
735,2.07215,735,3.33055,735,4.93953,735,7.25087,735,13.22689,735,17.44827,735,18.71971
734,2.0723,734,3.41761,734,5.11463,734,7.40206,734,13.44804,734,17.6825,734,18.96496
733,2.09793,733,3.39401,733,5.16714,733,7.564,733,13.62118,733,17.88692,733,19.26543
732,2.06913,732,3.42049,732,5.28056,732,7.6913,732,13.77323,732,18.14862,732,19.48652
731,2.07979,731,3.42797,731,5.24638,731,7.78055,731,13.87725,731,18.29427,731,19.66144
730,1.91661,730,3.21139,730,5.1774,730,7.59698,730,13.92515,730,18.35988,730,19.84201
729,1.96169,729,3.35026,729,5.29237,729,7.6519,729,14.17898,729,18.64872,729,20.06731
728,2.02376,728,3.40423,728,5.26798,728,7.82204,728,14.33428,728,18.91544,728,20.37467
727,2.04781,727,3.42927,727,5.35732,727,7.91129,727,14.47909,727,19.13994,727,20.59154
726,2.1155,726,3.53231,726,5.43764,726,8.00248,726,14.64362,726,19.30173,726,20.90445
725,2.04191,725,3.45575,725,5.42475,725,8.02114,725,14.73667,725,19.57817,725,21.19022
724,2.05934,724,3.55274,724,5.46204,724,7.99427,724,14.89907,724,19.83891,724,21.43064
723,2.11651,723,3.55447,723,5.58758,723,8.1671,723,15.109,723,20.04258,723,21.66108
722,2.1446,722,3.62499,722,5.68965,722,8.40605,722,15.30296,722,20.30972,722,21.97595
721,2.25563,721,3.70759,721,5.80307,721,8.55783,721,15.59259,721,20.61619,721,22.32352
720,2.27969,720,3.67291,720,5.86678,720,8.60634,720,15.77433,720,20.87137,720,22.63962
719,2.31872,719,3.72817,719,5.96699,719,8.82812,719,16.08828,719,21.15519,719,22.99634
718,2.31123,718,3.76689,718,6.05866,718,8.92692,718,16.20815,718,21.4498,718,23.22226
717,2.26154,717,3.74415,717,6.04965,717,8.92528,717,16.35023,717,21.71951,717,23.49435
716,2.26773,716,3.76314,716,6.06689,716,9.09214,716,16.66019,716,21.9811,716,23.82289
715,2.25765,715,3.69421,715,6.20595,715,9.16318,715,16.81897,715,22.20892,715,24.20779
714,2.32491,714,3.84992,714,6.32589,714,9.4263,714,17.1212,714,22.61594,714,24.59782
713,2.36034,713,3.87669,713,6.38229,713,9.47272,713,17.3239,713,22.94026,713,24.89336
712,2.34882,712,3.87683,712,6.47381,712,9.51674,712,17.58334,712,23.24737,712,25.29687
711,2.43508,711,3.89223,711,6.57464,711,9.72047,711,17.85826,711,23.59028,711,25.72547
710,2.56917,710,4.08435,710,6.7485,710,10.00717,710,18.22472,710,24.07595,710,26.20157
709,2.56268,709,4.25503,709,6.85042,709,10.13239,709,18.48193,709,24.39353,709,26.59027
708,2.63081,708,4.26511,708,6.97752,708,10.3976,708,18.82719,708,24.81755,708,27.01609
707,2.63354,707,4.16048,707,7.01294,707,10.60431,707,19.14576,707,25.19379,707,27.44747
706,2.73148,706,4.27043,706,7.17313,706,10.78191,706,19.45946,706,25.62892,706,27.90764
705,2.7093,705,4.36426,705,7.33254,705,11.01742,705,19.83279,705,26.14387,705,28.4294
704,2.80579,704,4.45982,704,7.47812,704,11.19204,704,20.21847,704,26.54673,704,28.89738
703,2.93382,703,4.54142,703,7.65897,703,11.43323,703,20.59005,703,26.98122,703,29.42809
702,3.00511,702,4.67367,702,7.81791,702,11.71904,702,20.98645,702,27.50407,702,29.95016
701,3.10477,701,4.78376,701,7.99224,701,11.95694,701,21.42888,701,28.08902,701,30.54391
700,3.13703,700,4.74505,700,8.06262,700,12.11723,700,21.78525,700,28.54145,700,31.0594
699,3.19378,699,4.78693,699,8.22079,699,12.38229,699,22.23304,699,29.07938,699,31.62887
698,3.22431,698,4.90595,698,8.5365,698,12.7572,698,22.72886,698,29.70311,698,32.38653
697,3.41859,697,5.09677,697,8.80917,697,13.14733,697,23.30875,697,30.35869,697,33.12845
696,3.51278,696,5.23334,696,9.0312,696,13.43881,696,23.85146,696,30.96255,696,33.7913
695,3.51321,695,5.30544,695,9.24079,695,13.73895,695,24.41102,695,31.61866,695,34.44232
694,3.61993,694,5.50462,694,9.53444,694,14.17609,694,25.06213,694,32.38398,694,35.22877
693,3.79679,693,5.66249,693,9.88713,693,14.70726,693,25.72334,693,33.16223,693,36.07209
692,3.85656,692,5.77042,692,10.2103,692,15.14799,692,26.34389,692,33.93695,692,36.88866
691,4.06294,691,5.95938,691,10.61877,691,15.6714,691,27.08855,691,34.76596,691,37.79172
690,4.30201,690,6.21425,690,10.91009,690,16.1869,690,27.94273,690,35.597,690,38.70578
689,4.44272,689,6.38579,689,11.31902,689,16.70852,689,28.74764,689,36.52752,689,39.62324
688,4.68323,688,6.69419,688,11.93631,688,17.45908,688,29.71981,688,37.53423,688,40.66605
687,4.85375,687,6.97036,687,12.40211,687,18.16562,687,30.6401,687,38.46978,687,41.65754
686,4.97487,686,7.25645,686,12.90349,686,18.88842,686,31.55751,686,39.44294,686,42.61016
685,5.20026,685,7.50801,685,13.44946,685,19.68167,685,32.61251,685,40.44025,685,43.53369
684,5.51581,684,7.83814,684,14.06721,684,20.50387,684,33.76193,684,41.45647,684,44.51747
683,5.76698,683,8.20296,683,14.75938,683,21.39368,683,34.87132,683,42.47088,683,45.47801
682,6.04436,682,8.51798,682,15.51029,682,22.28633,682,35.9777,682,43.403,682,46.31577
681,6.35314,681,8.96094,681,16.21147,681,23.24405,681,37.14783,681,44.20925,681,47.01965
680,6.66119,680,9.42606,680,17.04954,680,24.33266,680,38.32432,680,45.04542,680,47.72784
679,6.96003,679,9.88169,679,17.92489,679,25.42545,679,39.43869,679,45.78819,679,48.30267
678,7.33189,678,10.33731,678,18.76451,678,26.45854,678,40.3848,678,46.3882,678,48.71245
677,7.77043,677,10.86072,677,19.61983,677,27.5067,677,41.20804,677,46.85036,677,48.93621
676,8.124,676,11.36671,676,20.47126,676,28.44143,676,41.96555,676,47.07188,676,48.9831
675,8.49888,675,11.83227,675,21.28104,675,29.2899,675,42.61841,675,47.18387,675,48.92469
674,8.93757,674,12.36603,674,22.05339,674,30.14673,674,43.103,674,47.23452,674,48.74494
673,9.30222,673,12.88714,673,22.72692,673,30.84148,673,43.39325,673,47.11195,673,48.4055
672,9.67034,672,13.33513,672,23.37745,672,31.33877,672,43.47183,672,46.80003,672,48.02297
671,10.12472,671,13.84429,671,23.96149,671,31.78487,671,43.48081,671,46.46353,671,47.58419
670,10.55649,670,14.2435,670,24.38021,670,32.13038,670,43.39949,670,46.09712,670,47.04556
669,10.90747,669,14.59925,669,24.67526,669,32.30962,669,43.2049,669,45.61668,669,46.4986
668,11.25455,668,15.00005,668,25.00045,668,32.41036,668,42.92587,668,45.13464,668,45.97653
667,11.62915,667,15.27722,667,25.25976,667,32.47335,667,42.5493,667,44.64983,667,45.43749
666,11.92525,666,15.47855,666,25.21828,666,32.34574,666,42.10301,666,44.10207,666,44.85486
665,12.17254,665,15.66362,665,25.17042,665,32.12843,665,41.64286,665,43.55966,665,44.32137
664,12.40268,664,15.75832,664,25.09756,664,31.89158,664,41.16201,664,43.03594,664,43.77246
663,12.62908,663,15.86783,663,25.01459,663,31.65696,663,40.76973,663,42.60445,663,43.35209
662,12.77511,662,15.94655,662,24.85673,662,31.37892,662,40.3379,662,42.20544,662,42.93161
661,12.832,661,15.92382,661,24.60581,661,31.00371,661,39.86379,661,41.79126,661,42.45653
660,12.93008,660,15.84812,660,24.43941,660,30.65357,660,39.4332,660,41.41041,660,42.11822
659,12.93569,659,15.71083,659,24.11406,659,30.29852,659,39.04478,659,41.05853,659,41.86125
658,12.94635,658,15.63153,658,23.86765,658,30.03435,658,38.75378,658,40.82782,658,41.63194
657,12.92518,657,15.5318,657,23.66551,657,29.76048,657,38.41637,657,40.60075,657,41.43841
656,12.83171,656,15.37623,656,23.3759,656,29.45587,656,38.13934,656,40.34482,656,41.25311
655,12.76201,655,15.23836,655,23.18153,655,29.16961,655,37.95835,655,40.20548,655,41.07932
654,12.70152,654,15.11949,654,22.96448,654,28.93753,654,37.78622,654,40.14895,654,41.02729
653,12.72687,653,15.04135,653,22.81641,653,28.83186,653,37.70402,653,40.07949,653,41.03583
652,12.64017,652,14.92852,652,22.6048,652,28.64889,652,37.58652,652,40.00074,652,40.97588
651,12.56657,651,14.84361,651,22.51064,651,28.5574,651,37.52727,651,40.04017,651,41.02544
650,12.54022,650,14.79325,650,22.51686,650,28.51874,650,37.52977,650,40.12309,650,41.1256
649,12.48607,649,14.72877,649,22.4502,649,28.46681,649,37.58515,649,40.23807,649,41.25023
648,12.39274,648,14.65797,648,22.34921,648,28.3883,648,37.63093,648,40.37431,648,41.36715
647,12.38108,647,14.64617,647,22.28846,647,28.3989,647,37.72073,647,40.55608,647,41.56859
646,12.36264,646,14.63005,646,22.34051,646,28.52994,646,37.88052,646,40.72492,646,41.7906
645,12.33729,645,14.57119,645,22.42566,645,28.6065,645,38.03993,645,40.94814,645,42.06321
644,12.38338,644,14.56126,644,22.47926,644,28.68411,644,38.27555,644,41.2201,644,42.36975
643,12.38684,643,14.62271,643,22.58258,643,28.81694,643,38.56992,643,41.48521,643,42.60975
642,12.39937,642,14.69092,642,22.68373,642,29.04066,642,38.81128,642,41.80782,642,42.9093
641,12.43897,641,14.76346,641,22.79031,641,29.25274,641,39.09106,641,42.12134,641,43.19095
640,12.48592,640,14.83009,640,22.89301,640,29.40453,640,39.44505,640,42.38913,640,43.52135
639,12.48693,639,14.9137,639,23.07137,639,29.55437,639,39.74055,639,42.73546,639,43.89771
638,12.6465,638,15.05056,638,23.32758,638,29.92614,638,40.11712,638,43.14697,638,44.29618
637,12.7705,637,15.1949,637,23.52319,637,30.26777,637,40.55032,637,43.52097,637,44.69608
636,12.84136,636,15.30341,636,23.68074,636,30.53522,636,40.9002,636,43.87703,636,45.02021
635,12.93627,635,15.38386,635,23.90664,635,30.85521,635,41.29997,635,44.25103,635,45.38258
634,13.02499,634,15.53712,634,24.15244,634,31.1534,634,41.73966,634,44.64983,634,45.72172
633,13.25283,633,15.72853,633,24.49612,633,31.52622,633,42.22337,633,45.06839,633,46.1389
632,13.48599,632,15.92238,632,24.81929,632,32.00053,632,42.69462,632,45.48899,632,46.54755
631,13.57341,631,16.09291,631,25.11138,631,32.3923,631,43.15289,631,45.86342,631,46.86232
630,13.80111,630,16.33857,630,25.44092,630,32.85527,630,43.68949,630,46.25431,630,47.24382
629,13.99525,629,16.52882,629,25.76813,629,33.25928,629,44.17171,629,46.6281,629,47.58594
628,14.19227,628,16.77923,628,26.16215,628,33.67284,628,44.64508,628,46.99248,628,47.88846
627,14.44992,627,16.99653,627,26.57575,627,34.20193,627,45.14239,627,47.38829,627,48.26606
626,14.73508,626,17.25126,626,26.97116,626,34.68832,626,45.62162,626,47.76539,626,48.59933
625,14.94995,625,17.56153,625,27.4191,625,35.20531,625,46.11432,625,48.09003,625,48.87852
624,15.14654,624,17.81927,624,27.78282,624,35.65216,624,46.55825,624,48.43304,624,49.0885
623,15.39512,623,18.09227,623,28.2236,623,36.12975,623,46.99444,623,48.68683,623,49.34938
622,15.68272,622,18.36974,622,28.66858,622,36.63809,622,47.50136,622,48.97556,622,49.58353
621,15.96255,621,18.69325,621,29.08218,621,37.19896,621,47.94803,621,49.25564,621,49.75772
620,16.22913,620,18.9792,620,29.51053,620,37.6761,620,48.35566,620,49.46711,620,49.89675
619,16.52279,619,19.27019,619,30.02729,619,38.19981,619,48.73423,619,49.63274,619,50.0149
618,16.81616,618,19.60263,618,30.52821,618,38.69591,618,49.15021,618,49.80478,618,50.08986
617,17.1464,617,19.94398,617,30.96371,617,39.15275,617,49.46429,617,49.93793,617,50.17933
616,17.38028,616,20.2331,616,31.32681,616,39.53423,616,49.66624,616,49.99371,616,50.1602
615,17.65291,615,20.55863,615,31.72005,615,39.96018,615,49.87791,615,50.00354,615,50.09912
614,17.90855,614,20.77565,614,32.13349,614,40.26688,614,50.0135,614,49.98067,614,50.00945
613,18.17282,613,21.04145,613,32.47562,613,40.58239,613,50.12401,613,49.93451,613,49.87412
612,18.38813,612,21.33647,612,32.79009,612,40.86298,612,50.23677,612,49.86762,612,49.74929
611,18.62188,611,21.53694,611,33.06043,611,41.08506,611,50.19848,611,49.73073,611,49.57304
610,18.86354,610,21.77454,610,33.24952,610,41.25445,610,50.14147,610,49.58049,610,49.35894
609,19.02239,609,21.94954,609,33.46362,609,41.41952,609,50.06464,609,49.36923,609,49.16768
608,19.15259,608,22.07503,608,33.49127,608,41.41832,608,49.86244,608,49.09076,608,48.90063
607,19.23482,607,22.16123,607,33.55109,607,41.38265,607,49.66599,607,48.80266,607,48.58473
606,19.33319,606,22.20354,606,33.60469,606,41.31982,606,49.45095,606,48.52879,606,48.26791
605,19.39008,605,22.2552,605,33.53151,605,41.22221,605,49.19212,605,48.2781,605,47.99037
604,19.40001,604,22.29593,604,33.49345,604,41.07013,604,48.89064,604,47.98199,604,47.68908
603,19.35681,603,22.22498,603,33.35284,603,40.77507,603,48.58305,603,47.63235,603,47.33194
602,19.32858,602,22.16684,602,33.13734,602,40.53493,602,48.23217,602,47.30291,602,47.08032
601,19.22157,601,22.04193,601,32.95089,601,40.28181,601,47.92907,601,47.07476,601,46.79352
600,19.20184,600,21.96378,600,32.80857,600,40.06719,600,47.65166,600,46.84619,600,46.57542
599,19.01836,599,21.78836,599,32.53248,599,39.73362,599,47.30752,599,46.58054,599,46.31855
598,18.93584,598,21.65768,598,32.34215,598,39.48572,598,47.0613,598,46.37634,598,46.1171
597,18.80046,597,21.50643,597,32.16845,597,39.21394,597,46.77478,597,46.16711,597,45.96954
596,18.64334,596,21.38281,596,31.92638,596,39.00127,596,46.54141,596,46.01035,596,45.8483
595,18.48563,595,21.19889,595,31.63506,595,38.70262,595,46.34083,595,45.8803,595,45.70989
594,18.34867,594,20.99871,594,31.43013,594,38.48039,594,46.14238,594,45.78391,594,45.65704
593,18.25434,593,20.88315,593,31.26373,593,38.31861,593,46.06455,593,45.77996,593,45.63699
592,18.16721,592,20.80026,592,31.0821,592,38.15653,592,46.00655,592,45.72568,592,45.67832
591,18.04162,591,20.67952,591,30.93357,591,38.01131,591,45.93882,591,45.74213,591,45.71853
590,17.86765,590,20.4825,590,30.758,590,37.86744,590,45.90901,590,45.75464,590,45.77067
589,17.75517,589,20.42494,589,30.63153,589,37.7558,589,45.94693,589,45.81747,589,45.84018
588,17.67826,588,20.3042,588,30.53504,588,37.78177,588,45.97561,588,45.96044,588,45.93962
587,17.57773,587,20.20303,587,30.48921,587,37.70759,587,46.06655,587,46.07425,587,46.09098
586,17.50112,586,20.16489,586,30.44555,586,37.71416,586,46.17494,586,46.25046,586,46.28605
585,17.35681,585,20.00659,585,30.31846,585,37.657,585,46.25839,585,46.3757,585,46.43475
584,17.37495,584,20.04113,584,30.36305,584,37.75655,584,46.44973,584,46.55917,584,46.67043
583,17.23223,583,19.91074,583,30.38123,583,37.76983,583,46.63171,583,46.75515,583,46.81275
582,17.22129,582,19.92686,582,30.37905,582,37.83012,582,46.77927,582,46.95134,582,46.99661
581,17.204,581,19.92715,581,30.38915,581,38.01086,581,47.03635,581,47.15929,581,47.2178
580,17.09066,580,19.78252,580,30.35171,580,38.03012,580,47.15622,580,47.33838,580,47.37986
579,17.06848,579,19.81216,579,30.41448,579,38.2216,579,47.41142,579,47.58095,579,47.65442
578,17.08562,578,19.80238,578,30.50055,578,38.34786,578,47.67025,578,47.84254,578,47.8499
577,16.98754,577,19.74424,577,30.53458,577,38.42458,577,47.87568,577,47.98317,577,48.07068
576,16.98941,576,19.79734,576,30.63526,576,38.63352,576,48.07626,576,48.31956,576,48.27285
575,17.04285,575,19.79201,575,30.72553,575,38.81232,575,48.41179,575,48.49331,575,48.51851
574,16.96868,574,19.80554,574,30.85884,574,38.91515,574,48.65901,574,48.76623,574,48.74144
573,17.01131,573,19.83634,573,30.98251,573,39.13947,573,48.96399,573,49.02632,573,49.00675
572,17.00828,572,19.8726,572,31.12343,572,39.31319,572,49.26509,572,49.26408,572,49.22084
571,17.0175,571,19.89664,571,31.24073,571,39.56766,571,49.57094,571,49.50002,571,49.48327
570,17.05898,570,19.94053,570,31.32463,570,39.78138,570,49.86993,570,49.76984,570,49.71782
569,17.05782,569,20.01637,569,31.51714,569,40.04913,569,50.18613,569,50.00151,569,49.92667
568,17.01476,568,19.96672,568,31.62139,568,40.25315,568,50.44819,568,50.24109,568,50.14663
567,17.0571,567,20.07451,567,31.80939,567,40.49702,567,50.79034,567,50.47917,567,50.39866
566,17.0499,566,20.06127,566,31.94969,566,40.73283,566,51.0983,566,50.77602,566,50.59373
565,17.11255,565,20.12963,565,32.12852,565,41.07312,565,51.41837,565,51.03323,565,50.86953
564,17.1065,564,20.16748,564,32.30471,564,41.21072,564,51.74941,564,51.251,564,51.05904
563,17.19162,563,20.26807,563,32.52767,563,41.55414,563,52.11439,563,51.54593,563,51.29566
562,17.21236,562,20.31715,562,32.69174,562,41.77547,562,52.3878,562,51.78925,562,51.54327
561,17.21639,561,20.37658,561,32.92324,561,42.06516,561,52.7514,561,52.04283,561,51.75829
560,17.33103,560,20.44883,560,33.08715,560,42.39783,560,53.15367,560,52.33882,560,52.03964
559,17.37524,559,20.51301,559,33.27966,559,42.67081,559,53.45453,559,52.59988,559,52.19728
558,17.40952,558,20.68959,558,33.52576,558,42.98527,558,53.8175,558,52.87493,558,52.45939
557,17.47735,557,20.75349,557,33.76985,557,43.30257,557,54.19357,557,53.12626,557,52.71215
556,17.52992,556,20.80227,556,33.95148,556,43.64658,556,54.56054,556,53.37685,556,52.91473
555,17.53914,555,20.9269,555,34.26532,555,43.95344,555,54.98451,555,53.68674,555,53.15237
554,17.64859,554,21.03656,554,34.50413,554,44.35551,554,55.38266,554,53.95516,554,53.46209
553,17.73457,553,21.12938,553,34.73206,553,44.69236,553,55.79416,553,54.23374,553,53.68812
552,17.81148,552,21.25531,552,34.95626,552,45.03473,552,56.13817,552,54.4902,552,53.86745
551,17.87427,551,21.38555,551,35.21401,551,45.36696,551,56.54006,551,54.75072,551,54.12494
550,17.95996,550,21.52126,550,35.48902,550,45.72798,550,56.98212,550,54.99767,550,54.3558
549,17.97681,549,21.60386,549,35.73513,549,46.11573,549,57.31005,549,55.29773,549,54.55755
548,18.07057,548,21.72316,548,36.0771,548,46.53019,548,57.73115,548,55.58753,548,54.79427
547,18.20854,547,21.86621,547,36.38224,547,46.99509,547,58.19391,547,55.87381,547,55.02605
546,18.27508,546,22.00235,546,36.69625,546,47.38523,546,58.59081,546,56.16307,546,55.22801
545,18.37128,545,22.09316,545,36.90693,545,47.73267,545,59.04908,545,56.38256,545,55.47017
544,18.47886,544,22.27247,544,37.30001,544,48.17997,544,59.4965,544,56.68582,544,55.66863
543,18.58472,543,22.4266,543,37.65037,543,48.70427,543,59.92621,543,56.9909,543,55.93939
542,18.64218,542,22.5236,542,37.9114,542,49.01829,542,60.3755,542,57.18261,542,56.13456
541,18.79758,541,22.75832,541,38.29889,541,49.55886,541,60.84425,541,57.53428,541,56.37457
540,18.90084,540,22.87719,540,38.66836,540,49.97377,540,61.28918,540,57.77877,540,56.5537
539,19.08807,539,23.06269,539,39.03317,539,50.52777,539,61.75917,539,58.05735,539,56.7717
538,19.17621,538,23.18502,538,39.39409,538,50.95477,538,62.20148,538,58.32386,538,56.99505
537,19.24865,537,23.34562,537,39.73497,537,51.40341,537,62.62208,537,58.55114,537,57.16616
536,19.4448,536,23.60481,536,40.17995,536,52.00935,536,63.12177,536,58.85462,536,57.41131
535,19.56016,535,23.78642,535,40.58827,535,52.50903,535,63.60037,535,59.1628,535,57.57635
534,19.67495,534,23.94904,534,40.94531,534,53.01154,534,64.09506,534,59.3591,534,57.77584
533,19.81882,533,24.12879,533,41.38299,533,53.526,533,64.58577,533,59.64602,533,57.96855
532,19.9676,532,24.34854,532,41.80948,532,54.06717,532,64.99202,532,59.88858,532,58.18079
531,20.16562,531,24.60629,531,42.30744,531,54.68998,531,65.55669,531,60.12998,531,58.3521
530,20.33268,530,24.79783,530,42.72989,530,55.22473,530,66.04378,530,60.41208,530,58.52712
529,20.48909,529,25.02277,529,43.21495,529,55.87037,529,66.55132,529,60.65668,529,58.71129
528,20.68035,528,25.25389,528,43.6907,528,56.43333,528,67.04352,528,60.87051,528,58.88569
527,20.83877,527,25.50286,527,44.23698,527,57.08957,527,67.5583,527,61.16073,527,59.09691
526,21.01663,526,25.7642,526,44.72919,526,57.72104,526,68.02717,526,61.40234,526,59.24848
525,21.18773,525,26.05375,525,45.26491,525,58.37101,525,68.60119,525,61.61499,525,59.41352
524,21.37798,524,26.29552,524,45.78167,524,59.0083,524,69.03726,524,61.82101,524,59.52211
523,21.59444,523,26.55629,523,46.35856,523,59.7208,523,69.50202,523,62.07961,523,59.72777
522,21.82847,522,26.84239,522,46.92146,522,60.41256,522,70.02628,522,62.30711,522,59.90978
521,22.05962,521,27.13597,521,47.53424,521,61.08537,521,70.49852,521,62.51014,521,60.0193
520,22.25175,520,27.44207,520,48.13428,520,61.82534,520,70.99247,520,62.71606,520,60.17128
519,22.51026,519,27.79479,519,48.75654,519,62.5556,519,71.48953,519,62.90637,519,60.31813
518,22.73392,518,28.07643,518,49.35627,518,63.28572,518,71.94144,518,63.09017,518,60.43278
517,22.98941,517,28.43491,517,50.05668,517,64.05807,517,72.44649,517,63.28818,517,60.54322
516,23.23742,516,28.75958,516,50.65765,516,64.80908,516,72.89204,516,63.4801,516,60.64574
515,23.53914,515,29.11691,515,51.4084,515,65.56801,515,73.32062,515,63.64808,515,60.78477
514,23.75488,514,29.46244,514,52.05147,514,66.32185,514,73.78451,514,63.80356,514,60.89696
513,24.04148,513,29.84265,513,52.75981,513,67.14018,513,74.2651,513,63.97741,513,61.02478
512,24.35472,512,30.24417,512,53.56058,512,67.93522,512,74.61336,512,64.14486,512,61.09954
511,24.67142,511,30.64841,511,54.2944,511,68.75607,511,75.0735,511,64.25428,511,61.21378
510,24.97832,510,31.06087,510,55.07575,510,69.57723,510,75.48675,510,64.42836,510,61.29101
509,25.28523,509,31.48857,509,55.86084,509,70.44093,509,75.87392,509,64.56738,509,61.40134
508,25.64009,508,31.94851,508,56.66286,508,71.28447,508,76.30126,508,64.68044,508,61.48227
507,26.02391,507,32.41781,507,57.52547,507,72.16488,507,76.67546,507,64.8154,507,61.5488
506,26.37733,506,32.95273,506,58.38498,506,73.02081,506,77.01723,506,64.96959,506,61.63981
505,26.77238,505,33.4059,505,59.27556,505,73.87958,505,77.40515,505,65.1036,505,61.70418
504,27.22301,504,34.024,504,60.21586,504,74.83237,504,77.75728,504,65.26164,504,61.82367
503,27.5714,503,34.55259,503,61.12555,503,75.73532,503,78.0842,503,65.34413,503,61.84917
502,28.01469,502,35.14364,502,62.04426,502,76.63946,502,78.34826,502,65.45121,502,61.93102
501,28.53287,501,35.77339,501,63.04453,501,77.52345,501,78.71087,501,65.57634,501,62.01247
500,28.98481,500,36.35983,500,63.9898,500,78.43669,500,78.98628,500,65.65445,500,62.03982
499,29.43875,499,36.94915,499,65.04399,499,79.24561,499,79.2078,499,65.75287,499,62.13514
498,29.90725,498,37.64352,498,66.02282,498,80.11528,498,79.45665,498,65.80469,498,62.17514
497,30.47282,497,38.41935,497,67.07763,497,81.00434,497,79.64649,497,65.92502,497,62.20661
496,31.05365,496,39.19086,496,68.12576,496,81.91191,496,79.92914,496,66.04555,496,62.30893
495,31.56578,495,39.86696,495,69.09977,495,82.73232,495,80.11836,495,66.09193,495,62.36137
494,32.19385,494,40.66121,494,70.21409,494,83.52483,494,80.31569,494,66.17485,494,62.44425
493,32.84251,493,41.36997,493,71.27884,493,84.34927,493,80.43805,493,66.2457,493,62.53053
492,33.4618,492,42.12997,492,72.28765,492,85.07192,492,80.54271,492,66.33086,492,62.51706
491,33.99208,491,42.90867,491,73.23572,491,85.76741,491,80.65958,491,66.39957,491,62.52024
490,34.67588,490,43.74969,490,74.20213,490,86.57305,490,80.7449,490,66.43868,490,62.60652
489,35.37567,489,44.62453,489,75.18624,489,87.27914,489,80.81438,489,66.56317,489,62.65722
488,36.09419,488,45.50585,488,76.18185,488,87.90807,488,80.96131,488,66.54682,488,62.70513
487,36.83157,487,46.34053,487,77.11516,487,88.52655,487,80.95632,487,66.58882,487,62.73074
486,37.48412,486,47.24847,486,78.05857,486,89.12443,486,81.06684,486,66.67377,486,62.78503
485,38.26471,485,48.09481,485,79.02481,485,89.705,485,81.09977,485,66.70765,485,62.85331
484,39.03968,484,48.9898,484,79.97071,484,90.24781,484,81.05399,484,66.71491,484,62.8493
483,39.86592,483,49.85946,483,80.81514,483,90.74302,483,81.09453,483,66.78875,483,62.89681
482,40.69158,482,50.83072,482,81.7514,482,91.29075,482,81.16475,482,66.83695,482,62.96715
481,41.48628,481,51.71405,481,82.57595,481,91.72327,481,81.19681,481,66.87232,481,62.96036
480,42.30201,480,52.5637,480,83.39009,480,92.19832,480,81.1317,480,66.94145,480,62.98062
479,43.10463,479,53.45322,479,84.14271,479,92.64592,479,81.13868,479,66.94402,479,63.02926
478,43.9529,478,54.33122,478,84.879,478,92.95426,478,81.12209,478,66.92767,478,63.04622
477,44.73248,477,55.22016,477,85.61126,477,93.3435,477,81.07993,477,66.97095,477,63.08283
476,45.64168,476,56.09112,476,86.36916,476,93.73094,476,81.10862,476,67.04746,476,63.12859
475,46.49557,475,57.01388,475,87.07656,475,94.06839,475,81.10762,475,67.06776,475,63.18453
474,47.41427,474,57.92412,474,87.79623,474,94.43614,474,81.08368,474,67.06712,474,63.17929
473,48.29898,473,58.83522,473,88.49478,473,94.7406,473,81.0727,473,67.09341,473,63.22114
472,49.17577,472,59.71582,472,89.08254,472,95.01283,472,81.0011,472,67.07599,472,63.20736
471,50.11507,471,60.60059,471,89.75887,471,95.29282,471,80.95757,471,67.12119,471,63.25034
470,51.05005,470,61.51558,470,90.40397,470,95.5528,470,80.95595,470,67.12856,470,63.28921
469,52.02823,469,62.42884,469,91.00028,469,95.81772,469,80.91603,469,67.13754,469,63.32438
468,52.96695,468,63.30296,468,91.62176,468,96.04457,468,80.8135,468,67.13326,468,63.30546
467,53.9506,467,64.24543,467,92.22149,467,96.30844,467,80.78032,467,67.1479,467,63.30988
466,54.93857,466,65.20417,466,92.77678,466,96.47769,466,80.76373,466,67.14245,466,63.33795
465,55.91488,465,66.0508,465,93.26728,465,96.61335,465,80.67954,465,67.10089,465,63.28263
464,56.91092,464,66.8901,464,93.70962,464,96.7438,464,80.55618,464,67.06402,464,63.26926
463,57.9254,463,67.81948,463,94.19966,463,96.8811,463,80.48308,463,67.0575,463,63.26484
462,58.92302,462,68.71691,462,94.6392,462,96.94229,462,80.45938,462,67.01967,462,63.22895
461,59.97595,461,69.61305,461,95.09645,461,97.02289,461,80.30272,461,66.97896,461,63.22052
460,61.04716,460,70.54444,460,95.50119,460,97.11542,460,80.15067,460,66.96144,460,63.21096
459,62.06754,459,71.33855,459,95.78707,459,97.12975,459,80.05637,459,66.89572,459,63.12756
458,63.10679,458,72.20576,458,96.15981,458,97.1399,458,80.01209,458,66.87157,458,63.08119
457,64.11997,457,73.02274,457,96.42829,457,97.13617,457,79.80827,457,66.77304,457,63.02113
456,65.16757,456,73.78879,456,96.61659,456,97.08542,456,79.61905,456,66.69172,456,62.93753
455,66.14762,455,74.49194,455,96.79853,455,97.00498,455,79.47049,455,66.56627,455,62.83419
454,67.04284,454,75.17739,454,96.89828,454,96.82931,454,79.28876,454,66.4405,454,62.70318
453,68.03744,453,75.86471,453,96.93355,453,96.66305,453,79.05251,453,66.29934,453,62.57536
452,69.04299,452,76.53822,452,97.04883,452,96.57873,452,78.89522,452,66.171,452,62.47191
451,69.89141,451,77.10062,451,97.18199,451,96.36456,451,78.6692,451,66.08317,451,62.35798
450,70.77929,450,77.66677,450,97.1708,450,96.10965,450,78.42635,450,65.93624,450,62.22605
449,71.6532,449,78.18831,449,97.11487,449,95.87876,449,78.18012,449,65.78845,449,62.10224
448,72.4924,448,78.65242,448,96.98855,448,95.6816,448,77.9334,448,65.63351,448,61.93123
447,73.30914,447,79.05034,447,96.87575,447,95.41356,447,77.65961,447,65.44832,447,61.79642
446,74.10528,446,79.49877,446,96.86425,446,95.10148,446,77.45866,446,65.31133,446,61.72259
445,74.74847,445,79.92489,445,96.71898,445,94.88433,445,77.25073,445,65.11973,445,61.55014
444,75.44077,444,80.17875,444,96.50846,444,94.54718,444,76.98455,444,64.91552,444,61.38253
443,76.13984,443,80.51248,443,96.3492,443,94.28256,443,76.72548,443,64.77907,443,61.22149
442,76.64852,442,80.77368,442,96.14971,442,93.99511,442,76.47239,442,64.60371,442,61.01038
441,77.24073,441,81.01689,441,95.99807,441,93.79273,441,76.25635,441,64.48318,441,60.91413
440,77.83711,440,81.18886,440,95.834,440,93.5108,440,76.07998,440,64.33069,440,60.72544
439,78.34406,439,81.34947,439,95.57639,439,93.2444,439,75.80045,439,64.14508,439,60.58888
438,78.85015,438,81.58606,438,95.45303,438,93.0459,438,75.58803,438,64.01439,438,60.48564
437,79.26564,437,81.71356,437,95.23365,437,92.72278,437,75.37736,437,63.88626,437,60.3426
436,79.62944,436,81.76998,436,94.97697,436,92.45861,436,75.20547,436,63.7372,436,60.20439
435,80.03341,435,81.88367,435,94.83543,435,92.22967,435,75.04906,435,63.59711,435,60.07987
434,80.3972,434,82.04327,434,94.67431,434,91.98266,434,74.90723,434,63.46845,434,60.00295
433,80.79211,433,82.14444,433,94.52516,433,91.78282,433,74.75044,433,63.3181,433,59.88325
432,81.1042,432,82.21394,432,94.40645,432,91.6376,432,74.55474,432,63.20611,432,59.7687
431,81.38086,431,82.36016,431,94.35301,431,91.52298,431,74.41915,431,63.15065,431,59.70597
430,81.6977,430,82.44406,430,94.28915,430,91.34135,430,74.31101,430,63.08472,430,59.63255
429,82.07993,429,82.57502,429,94.21317,429,91.17867,429,74.20473,429,63.01013,429,59.5506
428,82.46533,428,82.72843,428,94.16967,428,91.08106,428,74.12802,428,62.90787,428,59.48674
427,82.75034,427,82.80067,427,94.10271,427,90.93122,427,73.97547,427,62.82911,427,59.37363
426,82.99661,426,82.93638,426,94.02937,426,90.83749,426,73.87569,426,62.765,426,59.2709
425,83.24361,425,83.16606,425,93.98618,425,90.79182,425,73.83477,425,62.69009,425,59.26277
424,83.56578,424,83.34279,424,94.02191,424,90.75167,424,73.68671,424,62.62085,424,59.2091
423,83.90523,423,83.53059,423,94.07676,423,90.65362,423,73.61275,423,62.58494,423,59.16478
422,84.18348,422,83.72588,422,94.0578,422,90.60839,422,73.6019,422,62.51848,422,59.1001
421,84.44171,421,83.89224,421,93.99643,421,90.56004,421,73.49737,421,62.46056,421,59.02626
420,84.73824,420,84.08149,420,94.02067,420,90.44646,420,73.41043,420,62.41664,420,58.96518
419,85.00281,419,84.25504,419,94.03496,419,90.35393,419,73.33447,419,62.36353,419,58.9478
418,85.27875,418,84.43637,418,93.97608,418,90.3599,418,73.22782,418,62.30626,418,58.90132
417,85.65392,417,84.65958,417,94.02953,417,90.32721,417,73.15747,417,62.24438,417,58.81289
416,86.02218,416,84.90567,416,94.15942,416,90.31453,416,73.0724,416,62.21521,416,58.77998
415,86.36624,415,85.1034,415,94.22343,415,90.32363,415,72.94829,415,62.16616,415,58.74996
414,86.68697,414,85.33942,414,94.22576,414,90.26319,414,72.91237,414,62.12139,414,58.72939
413,87.00108,413,85.58651,413,94.2632,413,90.12051,413,72.85225,413,62.03665,413,58.72343
412,87.25124,412,85.78353,412,94.23368,412,90.00111,412,72.74822,412,61.93428,412,58.62707
411,87.55555,411,86.03019,411,94.22762,411,89.94813,411,72.65853,411,61.87498,411,58.53041
410,87.93951,410,86.3219,410,94.2994,410,89.87932,410,72.60752,410,61.88481,410,58.48609
409,88.2817,409,86.53086,409,94.29692,409,89.8047,409,72.52644,409,61.84025,409,58.46964
408,88.58616,408,86.67175,408,94.20339,408,89.62113,408,72.36616,408,61.70956,408,58.37226
407,88.91884,407,86.88359,407,94.21084,407,89.4777,407,72.22483,407,61.60462,407,58.2757
406,89.25772,406,87.04736,406,94.22063,406,89.38352,406,72.09798,406,61.53431,406,58.21421
405,89.5845,405,87.19933,405,94.16874,405,89.30054,405,72.02027,405,61.45363,405,58.10747
404,89.95002,404,87.45204,404,94.18319,404,89.20219,404,71.94244,404,61.34293,404,57.98037
403,90.19068,403,87.61221,403,94.09152,403,89.00996,403,71.74748,403,61.23842,403,57.8615
402,90.44646,402,87.72043,402,93.95992,402,88.87444,402,71.54491,402,61.15742,402,57.78232
401,90.8019,401,87.9104,401,93.78808,401,88.71191,401,71.3885,401,61.01199,401,57.67137
400,91.03579,400,87.97401,400,93.58424,400,88.44685,400,71.19366,400,60.81975,400,57.50344
399,91.24634,399,87.96005,399,93.50469,399,88.19477,399,70.98136,399,60.67752,399,57.39187
398,91.42968,398,88.0569,398,93.39966,398,87.96717,398,70.84416,398,60.57996,398,57.31249
397,91.56851,397,88.06971,397,93.1363,397,87.72449,397,70.6149,397,60.36229,397,57.1567
396,91.6905,396,88.02884,396,92.83131,396,87.37525,396,70.32913,396,60.19046,396,56.9678
395,91.77662,395,88.01747,395,92.58536,395,87.08736,395,70.15313,395,60.03722,395,56.80594
394,91.82329,394,87.88233,394,92.26825,394,86.78856,394,69.91252,394,59.82703,394,56.62188
393,91.79578,393,87.72979,393,91.85062,393,86.41709,393,69.57038,393,59.6037,393,56.39184
392,91.75315,392,87.584,392,91.44976,392,86.05218,392,69.28848,392,59.39639,392,56.18258
391,91.66342,391,87.37231,391,91.06211,391,85.62861,391,68.9497,391,59.17445,391,55.96427
390,91.5701,390,87.14824,390,90.68208,390,85.23117,390,68.69911,390,58.90004,390,55.81003
389,91.43198,389,86.85581,389,90.28992,389,84.79716,389,68.39676,389,58.65405,389,55.53958
388,91.18456,388,86.53057,388,89.78979,388,84.30643,388,68.02605,388,58.41052,388,55.23736
387,90.9102,387,86.16144,387,89.23139,387,83.83959,387,67.73953,387,58.13963,387,55.03479
386,90.52567,386,85.76611,386,88.72876,386,83.36095,386,67.38641,386,57.83765,386,54.76907
385,90.19039,385,85.36187,385,88.17534,385,82.88575,385,66.97716,385,57.56131,385,54.50798
384,89.71988,384,84.86883,384,87.53894,384,82.29279,384,66.56292,384,57.29823,384,54.20319
383,89.2341,383,84.26684,383,87.05061,383,81.71416,383,66.20182,383,56.99048,383,53.91661
382,88.71304,382,83.68861,382,86.41763,382,81.19926,382,65.8119,382,56.62748,382,53.67536
381,88.09447,381,83.10073,381,85.84758,381,80.66182,381,65.39641,381,56.27581,381,53.33489
380,87.58565,380,82.52796,380,85.19472,380,80.06095,380,65.02845,380,56.00278,380,53.00892
379,86.98797,379,82.00441,379,84.45562,379,79.53008,379,64.59487,379,55.65785,379,52.75904
378,86.11809,378,81.25463,378,84.01002,378,78.85458,378,64.18512,378,55.263,378,52.41918
377,85.24951,377,80.33935,377,83.16698,377,78.06492,377,63.73271,377,54.91999,377,52.04036
376,84.61323,376,79.76673,376,82.46207,376,77.60165,376,63.29939,376,54.77701,376,51.76765
375,83.9506,375,79.22058,375,81.94111,375,77.25719,375,62.98057,375,54.46071,375,51.54523
374,83.23986,374,78.56823,374,81.34542,374,76.74498,374,62.66112,374,54.08628,374,51.25668
373,82.61712,373,77.97258,373,80.68727,373,76.23888,373,62.23541,373,53.72061,373,50.90089
372,81.88046,372,77.30397,372,79.9084,372,75.5701,372,61.77589,372,53.51897,372,50.5962
371,81.01634,371,76.58067,371,79.31551,371,74.84372,371,61.50833,371,53.16997,371,50.30992
370,80.35385,370,75.94516,370,78.81817,370,74.46687,370,61.13251,370,52.9337,370,50.12339
369,79.57528,369,75.27856,369,78.26381,369,74.07017,369,60.84001,369,52.69381,369,49.92585
368,78.69921,368,74.59052,368,77.67931,368,73.54571,368,60.35704,368,52.27097,368,49.57828
367,77.86448,367,74.06294,367,77.0701,367,73.09275,367,60.06005,367,52.01857,367,49.31617
366,77.06834,366,73.38108,366,76.4205,366,72.48487,366,59.78127,366,51.72823,366,49.08603
365,76.37286,365,72.65649,365,75.80026,365,71.97877,365,59.3911,365,51.51035,365,48.83101
364,75.58407,364,72.11668,364,75.41743,364,71.61699,364,59.12405,364,51.2042,364,48.54843
363,74.97544,363,71.54204,363,74.93858,363,71.10254,363,58.86672,363,50.88416,363,48.36169
362,74.30878,362,70.9792,362,74.417,362,70.77166,362,58.5514,362,50.73723,362,48.13762
361,73.58609,361,70.42054,361,73.88004,361,70.37018,361,58.18268,361,50.5249,361,47.85597
360,72.88154,360,69.77207,360,73.31558,360,69.89513,360,57.92099,360,50.22239,360,47.64743
359,72.17282,359,69.24593,359,73.0036,359,69.56932,359,57.72291,359,49.98601,359,47.42161
358,71.51566,358,68.80441,358,72.62434,358,69.37784,358,57.53818,358,49.83876,358,47.29061
357,70.99834,357,68.33252,357,72.32059,357,68.95711,357,57.29034,357,49.74355,357,47.18716
356,70.37819,356,67.62376,356,71.76779,356,68.62683,356,57.0602,356,49.51317,356,46.927
355,69.80039,355,67.31449,355,71.34689,355,68.38311,355,56.86549,355,49.32542,355,46.85635
354,69.28264,354,66.9042,354,71.22679,354,68.2061,354,56.70895,354,49.22465,354,46.81553
353,68.94563,353,66.54989,353,70.98969,353,67.88298,353,56.59283,353,49.25275,353,46.67187
352,68.59638,352,66.3169,352,70.9016,352,67.81761,352,56.53071,352,49.18821,352,46.59249
351,68.25607,351,65.97698,351,70.57035,351,67.78477,351,56.49965,351,49.09343,351,46.46498
350,67.96615,350,65.82947,350,70.47014,350,67.77209,350,56.48605,350,49.06607,350,46.55485
349,67.52776,349,65.62382,349,70.50105,349,67.63314,349,56.42444,349,49.04331,349,46.53377
348,67.37092,348,65.48883,348,70.48412,348,67.63374,348,56.55528,348,49.00751,348,46.64483
347,67.23281,347,65.42407,347,70.46641,347,67.73851,347,56.57661,347,49.06137,347,46.59897
346,67.26521,346,65.55215,346,70.64197,346,67.80865,346,56.62426,346,49.20584,346,46.66869
345,67.50083,345,65.668,345,70.83759,345,68.03775,345,56.8963,345,49.41112,345,46.81861
344,67.51508,344,65.80285,344,71.15299,344,68.17237,344,56.94744,344,49.48506,344,46.87188
343,67.57557,343,66.01094,343,71.28598,343,68.50235,343,57.08852,343,49.60848,343,46.9999
342,67.5714,342,66.08376,342,71.3155,342,68.52205,342,57.23695,342,49.50772,342,46.99898
341,67.80773,341,66.42987,341,71.60278,341,68.72205,341,57.43266,341,49.71951,341,47.10767
340,68.08281,340,66.72445,340,71.79902,340,68.90353,340,57.43428,340,49.82615,340,47.12279
339,68.41002,339,66.95658,339,72.04341,339,69.088,339,57.63099,339,50.01433,339,47.39128
338,68.87218,338,67.25362,338,72.5813,338,69.43037,338,57.73115,338,50.12322,338,47.55138
337,69.24462,337,67.46171,337,72.6259,337,69.54186,337,57.80449,337,50.02416,337,47.54707
336,69.51249,336,67.9018,336,72.87558,336,69.8014,336,58.01392,336,50.17248,336,47.63776
335,69.90595,335,68.34504,335,72.99335,335,69.94692,335,58.22572,335,50.45021,335,47.76075
334,70.24397,334,68.58034,334,73.21149,334,70.00856,334,58.0582,334,50.38898,334,47.80764
333,70.59393,333,68.65546,333,73.47328,333,70.07184,333,58.25366,333,50.3956,333,47.75088
332,70.91827,332,68.82369,332,73.62617,332,70.15004,332,58.18243,332,50.3925,332,47.84589
331,71.34601,331,69.23787,331,73.85068,331,70.35496,331,58.30542,331,50.64394,331,47.98811
330,71.80111,330,69.58239,330,74.0177,330,70.6042,330,58.37178,330,50.69684,330,48.00991
329,72.27565,329,69.80272,329,74.09787,329,70.77136,329,58.56998,329,50.79515,329,47.98348
328,72.55649,328,70.06479,328,74.26754,328,70.79464,328,58.52907,328,50.79739,328,47.9841
327,72.87175,327,70.41593,327,74.28183,327,70.87732,327,58.70195,327,50.9128,327,48.14647
326,73.21264,326,70.68735,326,74.71562,326,71.11672,326,58.79251,326,50.91697,326,48.38308
325,73.76352,325,71.00323,325,75.07733,325,71.4279,325,58.9811,325,50.86012,325,48.49043
324,73.95622,324,71.32473,324,75.18608,324,71.36029,324,58.91549,324,51.21286,324,48.55974
323,74.47339,323,71.50347,323,75.30556,323,71.38178,323,58.97699,323,51.14628,323,48.48426
322,74.82739,322,71.82526,322,75.05153,322,71.3873,322,58.83255,322,51.18475,322,48.45054
321,75.48484,321,72.50207,321,75.47197,321,71.72669,321,59.13989,321,51.30251,321,48.60478
320,76.09678,320,72.49387,320,75.55524,320,71.75549,320,59.19066,320,51.17492,320,48.60848
319,76.4142,319,72.77723,319,75.9432,319,71.67192,319,59.02202,319,51.27366,319,48.61589
318,77.04544,318,73.11701,318,76.16523,318,72.19309,318,59.17145,318,51.57008,318,48.65373
317,77.05076,317,73.34295,317,76.26078,317,72.01414,317,59.34757,317,51.58772,317,48.49126
316,77.84878,316,73.87902,316,76.77552,316,72.43009,316,59.6836,316,51.90754,316,48.87338
315,78.34075,315,74.08121,315,76.80395,315,72.58322,315,59.64307,315,51.72311,315,48.90834
314,78.82235,314,74.50072,314,76.83083,314,72.53039,314,59.8273,314,51.76596,314,48.87965
313,79.28609,313,74.95332,313,77.1105,313,72.61486,313,59.69059,313,51.90038,313,49.11534
312,80.07402,312,75.17782,312,77.16332,312,72.5977,312,59.72327,312,51.9442,312,49.2048
311,80.62548,311,75.5517,311,77.19253,311,72.88783,311,59.79724,311,51.96674,311,49.04397
310,81.32325,310,75.53904,310,77.62384,310,72.81276,310,59.77815,310,52.08984,310,49.02042
309,81.83826,309,76.44093,309,77.96736,309,73.29677,309,60.16059,309,52.34278,309,49.46023
308,82.59192,308,76.71221,308,78.04629,308,73.49154,308,60.30652,308,52.35774,308,49.29128
307,82.89292,307,76.88447,307,78.13283,307,73.55079,307,60.20799,307,52.36778,307,49.50085
306,83.51667,306,77.46501,306,78.39883,306,73.71183,306,60.33896,306,52.47507,306,49.5755
305,84.05818,305,77.58618,305,78.79145,305,73.73406,305,60.55624,305,52.59977,305,49.70507
304,84.87261,304,78.39352,304,79.0938,304,74.19569,304,60.79511,304,52.81819,304,49.95454
303,85.29041,303,78.39611,303,79.27278,303,74.40254,303,60.64181,303,52.7483,303,49.94744
302,85.63707,302,78.99579,302,79.35,302,74.47746,302,60.80222,302,52.88562,302,49.95793
301,86.27925,301,79.18072,301,79.35622,301,74.60492,301,60.91959,301,52.90774,301,50.10992
300,87.08519,300,79.65692,300,80.1152,300,74.87446,300,61.08711,300,53.17659,300,50.2511
299,87.30683,299,80.1255,299,79.94212,299,74.91043,299,61.28606,299,53.15394,299,50.27578
298,87.91416,298,80.33187,298,80.25131,298,75.00819,298,61.25562,298,53.31893,298,50.34807
297,88.29711,297,80.83628,297,80.69473,297,75.18161,297,61.28057,297,53.40239,297,50.49275
296,88.59005,296,80.97803,296,80.753,296,75.41578,296,61.48663,296,53.39234,296,50.38201
295,89.27803,295,81.59613,295,81.2463,295,75.60756,295,61.76067,295,53.62187,295,50.90562
294,89.62353,294,81.79329,294,81.45853,294,75.58786,294,61.79984,294,53.55754,294,50.73132
293,90.36797,293,82.31713,293,81.61545,293,75.98232,293,61.98868,293,53.83228,293,50.93914
292,90.71808,292,82.48493,292,81.82909,292,76.06605,292,62.05504,292,53.85803,292,50.88423
291,90.66954,291,82.57574,291,81.97793,291,76.09829,291,61.9555,291,53.70458,291,51.02727
290,91.55195,290,83.22723,290,82.34336,290,76.26977,290,62.36588,290,54.12379,290,51.07951
289,91.8904,289,83.80129,289,82.40318,289,76.40604,289,62.4946,289,54.11716,289,51.34214
288,92.65241,288,84.10063,288,83.09815,288,76.98347,288,62.42201,288,54.3203,288,51.43869
287,93.40765,287,84.72635,287,82.97261,287,77.16496,287,62.8809,287,54.62602,287,51.55253
286,93.7893,286,84.87645,286,83.24327,286,77.2763,286,62.84149,286,54.6647,286,51.5769
285,93.84302,285,85.08311,285,83.55882,285,77.33495,285,62.77925,285,54.69986,285,51.6168
284,94.67026,284,85.58795,284,83.82793,284,77.80508,284,63.08983,284,54.92277,284,51.83038
283,95.17721,283,86.05451,283,84.18916,283,77.88194,283,63.15607,283,55.00088,283,52.11275
282,95.63404,282,86.51762,282,84.16788,282,77.74254,282,63.2914,282,54.93025,282,51.93146
281,95.92612,281,86.6611,281,84.58396,281,78.01582,281,63.3282,281,55.2255,281,52.03984
280,96.87146,280,87.2874,280,84.75486,280,78.23834,280,63.36774,280,55.36783,280,52.11378
279,97.38374,279,87.55479,279,84.68728,279,78.19984,279,63.62232,279,55.29944,279,52.14473
278,97.83149,278,87.86305,278,84.808,278,78.13656,278,63.54449,278,55.13691,278,52.11337
277,98.54857,277,88.18527,277,85.23076,277,78.55072,277,63.67533,277,55.54853,277,52.45836
276,98.69072,276,88.61412,276,85.28685,276,78.32476,276,63.82813,276,55.50771,276,52.46145
275,99.25729,275,88.60016,275,85.08378,275,78.28968,275,63.76926,275,55.57353,275,52.42679
274,99.34111,274,88.86669,274,84.93587,274,78.29506,274,63.56794,274,55.2552,274,52.50885
273,99.82386,273,89.06629,273,84.99087,273,78.10178,273,63.5032,273,55.24527,273,52.22463
272,100.355,272,89.13998,272,85.17685,272,78.14357,272,63.43697,272,55.42351,272,52.45949
271,100.644,271,89.26245,271,84.78547,271,78.02731,271,63.4124,271,55.36121,271,52.38227
270,101.355,270,89.23338,270,84.94224,270,78.30774,270,63.56794,270,55.42158,270,52.4017
269,101.298,269,89.34635,269,84.81888,269,77.68777,269,63.09931,269,55.263,269,52.07141
268,101.229,268,89.54725,268,84.31548,268,77.45554,268,63.00452,268,54.78577,268,52.06555
267,101.4363,267,89.52393,267,84.29186,267,77.52554,267,63.21394,267,55.22475,267,52.1217
266,102.185,266,89.4255,266,84.21371,266,77.51987,266,63.07836,266,55.03753,266,51.98863
265,102.2817,265,89.57905,265,83.86475,265,77.00676,265,62.84224,265,54.92822,265,51.9257
264,102.276,264,89.46565,264,83.72538,264,76.96467,264,62.78299,264,54.84123,264,51.75037
263,102.135,263,89.29152,263,83.68467,263,76.78617,263,62.62171,263,54.71236,263,51.69752
262,102.592,262,88.93505,262,83.31163,262,76.39768,262,62.32035,262,54.66855,262,51.63603
261,102.795,261,88.77876,261,82.93315,261,76.05993,261,61.98943,261,54.32115,261,51.55479
260,102.593,260,88.78523,260,82.71035,260,75.75636,260,61.93156,260,54.297,260,51.36095
259,102.749,259,88.73789,259,82.56181,259,75.70487,259,61.85123,259,54.20917,259,51.4498
258,102.915,258,88.23074,258,82.02423,258,75.3131,258,61.66138,258,54.08382,258,50.99477
257,102.907,257,88.20513,257,81.72095,257,75.22982,257,61.53091,257,54.02751,257,51.09925
256,102.798,256,87.64215,256,81.42202,256,74.69656,256,61.30751,256,53.9184,256,50.79662
255,102.56,255,87.6715,255,81.10926,255,74.44791,255,60.9368,255,53.58917,255,50.75528
254,102.441,254,87.11888,254,80.54527,254,73.92615,254,60.67212,254,53.4524,254,50.5453
253,102.4574,253,86.75335,253,79.93761,253,73.56273,253,60.58244,253,53.21175,253,50.32565
252,102.496,252,86.62052,252,79.54701,252,73.2308,252,60.31314,252,53.27277,252,50.233
251,102.461,251,86.03998,251,79.13684,251,72.82097,251,59.97386,251,52.93435,251,50.00462
250,102.401,250,85.76899,250,79.08246,250,72.62605,250,59.89353,250,52.67671,250,49.91084