File: example/MoS2 Ext - Chem Mater.csv
01-04,,04-1k,,1-5k,,5-10k,,10-22k,,22-74k,
Wavelength (nm),Ext,Wavelength (nm),Ext,Wavelength (nm),Ext,Wavelength (nm),Ext,Wavelength (nm),Ext,Wavelength (nm),Ext
1000,0.0389,1000,0.00483,1000,0.00148,1000,0.0011,1000,0.0023,1000,0.00459
998.5,0.0393,998.5,0.00497,998.5,0.00149,998.5,0.00107,998.5,0.00227,998.5,0.00464
997,0.03956,997,0.00506,997,0.00139,997,0.00124,997,0.00236,997,0.00476
995.5,0.03993,995.5,0.00518,995.5,0.00153,995.5,0.00135,995.5,0.00257,995.5,0.00469
994,0.04034,994,0.00534,994,0.00164,994,0.00147,994,0.00272,994,0.00468
992.5,0.04046,992.5,0.00526,992.5,0.00157,992.5,0.00164,992.5,0.00279,992.5,0.00475
991,0.04078,991,0.00535,991,0.00172,991,0.00163,991,0.00279,991,0.00465
989.5,0.0411,989.5,0.00539,989.5,0.00177,989.5,0.00153,989.5,0.00278,989.5,0.00469
988,0.04121,988,0.00531,988,0.00177,988,0.00144,988,0.00267,988,0.00463
986.5,0.04159,986.5,0.00544,986.5,0.00182,986.5,0.00143,986.5,0.00257,986.5,0.00466
985,0.0419,985,0.00555,985,0.00181,985,0.00129,985,0.00251,985,0.00477
983.5,0.04232,983.5,0.00576,983.5,0.00185,983.5,0.00155,983.5,0.0028,983.5,0.0048
982,0.04283,982,0.00586,982,0.00195,982,0.00158,982,0.00281,982,0.00481
980.5,0.04312,980.5,0.00589,980.5,0.00191,980.5,0.00181,980.5,0.00299,980.5,0.0049
979,0.04345,979,0.00603,979,0.00199,979,0.00192,979,0.00314,979,0.00491
977.5,0.04371,977.5,0.00603,977.5,0.00203,977.5,0.0019,977.5,0.00318,977.5,0.00498
976,0.04397,976,0.006,976,0.0021,976,0.00191,976,0.00312,976,0.0049
974.5,0.04413,974.5,0.00602,974.5,0.00207,974.5,0.00168,974.5,0.00297,974.5,0.00486
973,0.04452,973,0.00612,973,0.00217,973,0.0017,973,0.0029,973,0.0049
971.5,0.04482,971.5,0.00623,971.5,0.00211,971.5,0.00166,971.5,0.00286,971.5,0.00497
970,0.04528,970,0.00639,970,0.00215,970,0.00176,970,0.00296,970,0.00497
968.5,0.04572,968.5,0.00646,968.5,0.0022,968.5,0.00189,968.5,0.00306,968.5,0.00494
967,0.04606,967,0.00651,967,0.00209,967,0.00195,967,0.00312,967,0.00499
965.5,0.0465,965.5,0.00669,965.5,0.0023,965.5,0.00214,965.5,0.00336,965.5,0.00489
964,0.04671,964,0.00662,964,0.00221,964,0.00215,964,0.00341,964,0.00511
962.5,0.0471,962.5,0.00669,962.5,0.00236,962.5,0.00206,962.5,0.00329,962.5,0.00492
961,0.04727,961,0.00661,961,0.00227,961,0.00204,961,0.0033,961,0.00501
959.5,0.04762,959.5,0.00672,959.5,0.00234,959.5,0.00186,959.5,0.00311,959.5,0.00488
958,0.04793,958,0.00668,958,0.00224,958,0.00175,958,0.00303,958,0.00509
956.5,0.04832,956.5,0.00673,956.5,0.00225,956.5,0.0017,956.5,0.00286,956.5,0.00498
955,0.0486,955,0.00675,955,0.00213,955,0.0018,955,0.00291,955,0.00511
953.5,0.04901,953.5,0.00683,953.5,0.00213,953.5,0.00177,953.5,0.00297,953.5,0.0049
952,0.04932,952,0.0068,952,0.00214,952,0.00195,952,0.00316,952,0.00501
950.5,0.04968,950.5,0.00679,950.5,0.00216,950.5,0.00183,950.5,0.00311,950.5,0.00485
949,0.04988,949,0.00674,949,0.00208,949,0.00191,949,0.00319,949,0.0049
947.5,0.05029,947.5,0.00681,947.5,0.00213,947.5,0.00183,947.5,0.00309,947.5,0.00484
946,0.05054,946,0.00678,946,0.00208,946,0.00168,946,0.003,946,0.00477
944.5,0.05086,944.5,0.00678,944.5,0.00202,944.5,0.00163,944.5,0.00285,944.5,0.00481
943,0.05125,943,0.00687,943,0.00208,943,0.0016,943,0.00274,943,0.00484
941.5,0.05158,941.5,0.00685,941.5,0.00199,941.5,0.00162,941.5,0.0028,941.5,0.00502
940,0.05203,940,0.00695,940,0.00206,940,0.00165,940,0.00279,940,0.00513
938.5,0.05237,938.5,0.00695,938.5,0.00191,938.5,0.00175,938.5,0.00294,938.5,0.0051
937,0.05282,937,0.00705,937,0.00204,937,0.00184,937,0.00306,937,0.0052
935.5,0.05313,935.5,0.00702,935.5,0.002,935.5,0.00183,935.5,0.00304,935.5,0.00514
934,0.05349,934,0.007,934,0.002,934,0.00173,934,0.00309,934,0.00509
932.5,0.05383,932.5,0.00699,932.5,0.00201,932.5,0.00168,932.5,0.00294,932.5,0.005
931,0.05423,931,0.00707,931,0.00201,931,0.00156,931,0.00282,931,0.00484
929.5,0.05463,929.5,0.00714,929.5,0.00198,929.5,0.00157,929.5,0.00277,929.5,0.00479
928,0.055,928,0.00711,928,0.00196,928,0.00145,928,0.00266,928,0.00487
926.5,0.05549,926.5,0.00721,926.5,0.00201,926.5,0.00161,926.5,0.00279,926.5,0.00494
925,0.05585,925,0.00724,925,0.00207,925,0.00167,925,0.00292,925,0.00507
923.5,0.0563,923.5,0.00734,923.5,0.0021,923.5,0.00178,923.5,0.00302,923.5,0.00522
922,0.05668,922,0.00739,922,0.00211,922,0.00188,922,0.00314,922,0.00526
920.5,0.05708,920.5,0.00737,920.5,0.002,920.5,0.00179,920.5,0.00306,920.5,0.00532
919,0.05745,919,0.00743,919,0.00195,919,0.00174,919,0.00299,919,0.0053
917.5,0.05786,917.5,0.00746,917.5,0.00192,917.5,0.00157,917.5,0.00287,917.5,0.00519
916,0.05833,916,0.00757,916,0.00194,916,0.00151,916,0.00284,916,0.00512
914.5,0.05884,914.5,0.00757,914.5,0.002,914.5,0.00149,914.5,0.00277,914.5,0.00502
913,0.05926,913,0.00765,913,0.00203,913,0.00155,913,0.00273,913,0.00496
911.5,0.05974,911.5,0.00769,911.5,0.00211,911.5,0.00169,911.5,0.00289,911.5,0.00495
910,0.0602,910,0.00777,910,0.00221,910,0.00181,910,0.00307,910,0.00503
908.5,0.06066,908.5,0.00787,908.5,0.00218,908.5,0.00188,908.5,0.00319,908.5,0.00514
907,0.06116,907,0.00794,907,0.0022,907,0.00195,907,0.00319,907,0.00529
905.5,0.0615,905.5,0.00789,905.5,0.00208,905.5,0.00174,905.5,0.00308,905.5,0.00532
904,0.06202,904,0.00801,904,0.00207,904,0.00174,904,0.00302,904,0.00542
902.5,0.06248,902.5,0.0081,902.5,0.00213,902.5,0.00165,902.5,0.003,902.5,0.00536
901,0.06298,901,0.00816,901,0.00207,901,0.00161,901,0.00287,901,0.00529
899.5,0.06345,899.5,0.00826,899.5,0.00212,899.5,0.00158,899.5,0.00287,899.5,0.00532
898,0.064,898,0.00834,898,0.00225,898,0.00169,898,0.00299,898,0.00519
896.5,0.06461,896.5,0.00844,896.5,0.00236,896.5,0.00181,896.5,0.00309,896.5,0.00515
895,0.06509,895,0.00853,895,0.00241,895,0.00196,895,0.00327,895,0.00524
893.5,0.06554,893.5,0.00859,893.5,0.00241,893.5,0.00204,893.5,0.00331,893.5,0.00523
892,0.06607,892,0.0086,892,0.00236,892,0.00199,892,0.0033,892,0.0052
890.5,0.06651,890.5,0.00868,890.5,0.00224,890.5,0.0019,890.5,0.00329,890.5,0.00539
889,0.06703,889,0.00869,889,0.00228,889,0.00179,889,0.00323,889,0.00532
887.5,0.06761,887.5,0.0088,887.5,0.00231,887.5,0.00174,887.5,0.00308,887.5,0.0054
886,0.06813,886,0.00891,886,0.00225,886,0.00171,886,0.00301,886,0.00543
884.5,0.06876,884.5,0.00907,884.5,0.00239,884.5,0.00181,884.5,0.00307,884.5,0.0054
883,0.06924,883,0.00915,883,0.00248,883,0.00191,883,0.00317,883,0.00535
881.5,0.06976,881.5,0.00922,881.5,0.00251,881.5,0.00199,881.5,0.00325,881.5,0.00547
880,0.07034,880,0.00936,880,0.0026,880,0.00206,880,0.00341,880,0.00543
878.5,0.07096,878.5,0.00942,878.5,0.00266,878.5,0.00213,878.5,0.00355,878.5,0.00541
877,0.07138,877,0.00935,877,0.00254,877,0.00206,877,0.00348,877,0.00539
875.5,0.07193,875.5,0.00941,875.5,0.00243,875.5,0.0019,875.5,0.00333,875.5,0.00543
874,0.0725,874,0.00948,874,0.00234,874,0.00182,874,0.00327,874,0.00545
872.5,0.07315,872.5,0.00964,872.5,0.00242,872.5,0.00185,872.5,0.00318,872.5,0.00548
871,0.07371,871,0.00972,871,0.00248,871,0.00189,871,0.00319,871,0.00553
869.5,0.07432,869.5,0.00983,869.5,0.00251,869.5,0.00196,869.5,0.0032,869.5,0.00557
868,0.07497,868,0.01001,868,0.00263,868,0.00202,868,0.00333,868,0.00561
866.5,0.07561,866.5,0.01018,866.5,0.00278,866.5,0.00222,866.5,0.00351,866.5,0.00564
865,0.07624,865,0.01028,865,0.00286,865,0.00226,865,0.00361,865,0.00555
863.5,0.0768,863.5,0.01033,863.5,0.00281,863.5,0.00227,863.5,0.00366,863.5,0.00565
862,0.07734,862,0.0103,862,0.00274,862,0.0021,862,0.00359,862,0.00563
860.5,0.07804,860.5,0.0103,860.5,0.00274,860.5,0.00207,860.5,0.00353,860.5,0.00557
859,0.07866,859,0.01047,859,0.00267,859,0.00202,859,0.00342,859,0.00557
857.5,0.07933,857.5,0.01063,857.5,0.00271,857.5,0.00199,857.5,0.00337,857.5,0.00565
856,0.07997,856,0.01069,856,0.00269,856,0.00196,856,0.00338,856,0.00569
854.5,0.08068,854.5,0.01088,854.5,0.00291,854.5,0.00213,854.5,0.00348,854.5,0.00571
853,0.0813,853,0.01105,853,0.00304,853,0.00228,853,0.00357,853,0.00571
851.5,0.08196,851.5,0.01112,851.5,0.00304,851.5,0.00231,851.5,0.00366,851.5,0.00573
850,0.08263,850,0.01123,850,0.00314,850,0.00242,850,0.00381,850,0.00583
848.5,0.08341,848.5,0.0113,848.5,0.0032,848.5,0.00244,848.5,0.00385,848.5,0.00576
847,0.08411,847,0.01133,847,0.0031,847,0.00238,847,0.00384,847,0.00591
845.5,0.08476,845.5,0.01148,845.5,0.00305,845.5,0.00233,845.5,0.0037,845.5,0.0059
844,0.08545,844,0.01154,844,0.00297,844,0.00212,844,0.00359,844,0.00599
842.5,0.08621,842.5,0.01173,842.5,0.00303,842.5,0.00209,842.5,0.00362,842.5,0.00591
841,0.08688,841,0.01183,841,0.00306,841,0.00217,841,0.00355,841,0.00596
839.5,0.08761,839.5,0.01195,839.5,0.00327,839.5,0.00221,839.5,0.00363,839.5,0.006
838,0.08842,838,0.01217,838,0.00349,838,0.00241,838,0.00389,838,0.00602
836.5,0.08901,836.5,0.01221,836.5,0.00352,836.5,0.00249,836.5,0.00397,836.5,0.00581
835,0.08988,835,0.01233,835,0.00357,835,0.00259,835,0.00405,835,0.00585
833.5,0.09052,833.5,0.01242,833.5,0.00344,833.5,0.0025,833.5,0.00393,833.5,0.00591
832,0.0913,832,0.01251,832,0.00347,832,0.00245,832,0.00394,832,0.0059
830.5,0.09216,830.5,0.01264,830.5,0.0034,830.5,0.00239,830.5,0.00387,830.5,0.00605
829,0.09287,829,0.0127,829,0.00329,829,0.00227,829,0.00372,829,0.00606
827.5,0.09367,827.5,0.01294,827.5,0.0034,827.5,0.00232,827.5,0.00369,827.5,0.00613
826,0.09452,826,0.01312,826,0.0035,826,0.00237,826,0.00384,826,0.00631
824.5,0.09533,824.5,0.01324,824.5,0.00361,824.5,0.00244,824.5,0.00393,824.5,0.00615
823,0.09608,823,0.01342,823,0.00378,823,0.00256,823,0.00405,823,0.00619
821.5,0.09691,821.5,0.01347,821.5,0.00381,821.5,0.00268,821.5,0.00409,821.5,0.00615
820,0.09769,820,0.01353,820,0.00375,820,0.00267,820,0.00413,820,0.0061
818.5,0.09847,818.5,0.01364,818.5,0.00373,818.5,0.00263,818.5,0.00412,818.5,0.00601
817,0.09942,817,0.01378,817,0.00364,817,0.00257,817,0.00403,817,0.00603
815.5,0.10023,815.5,0.01392,815.5,0.00356,815.5,0.00244,815.5,0.00391,815.5,0.00613
814,0.10111,814,0.01414,814,0.00357,814,0.00237,814,0.00386,814,0.00618
812.5,0.10198,812.5,0.01431,812.5,0.0036,812.5,0.00243,812.5,0.00396,812.5,0.00631
811,0.10291,811,0.01451,811,0.00377,811,0.00255,811,0.00403,811,0.00639
809.5,0.10369,809.5,0.01464,809.5,0.00392,809.5,0.00258,809.5,0.00419,809.5,0.00644
808,0.10465,808,0.01482,808,0.00392,808,0.00268,808,0.00421,808,0.00646
806.5,0.10562,806.5,0.01495,806.5,0.00404,806.5,0.00281,806.5,0.00438,806.5,0.00648
805,0.10648,805,0.01506,805,0.00395,805,0.00288,805,0.00437,805,0.00644
803.5,0.1074,803.5,0.01511,803.5,0.0038,803.5,0.00275,803.5,0.0042,803.5,0.00629
802,0.10833,802,0.01526,802,0.00371,802,0.00264,802,0.00412,802,0.0063
800.5,0.1093,800.5,0.01549,800.5,0.00375,800.5,0.0026,800.5,0.0041,800.5,0.00628
799,0.11047,799,0.01573,799,0.00384,799,0.00275,799,0.00423,799,0.0059
797.5,0.11112,797.5,0.01579,797.5,0.00379,797.5,0.00257,797.5,0.00413,797.5,0.0058
796,0.11225,796,0.01599,796,0.00397,796,0.0027,796,0.00435,796,0.00594
794.5,0.11333,794.5,0.0164,794.5,0.00405,794.5,0.00292,794.5,0.0045,794.5,0.00609
793,0.11439,793,0.01659,793,0.00423,793,0.00304,793,0.00457,793,0.00605
791.5,0.11537,791.5,0.01674,791.5,0.00423,791.5,0.00303,791.5,0.00463,791.5,0.00603
790,0.1163,790,0.01693,790,0.00414,790,0.00311,790,0.00459,790,0.00595
788.5,0.11726,788.5,0.01707,788.5,0.00413,788.5,0.003,788.5,0.00445,788.5,0.00595
787,0.11836,787,0.01714,787,0.00418,787,0.00307,787,0.00451,787,0.00585
785.5,0.11926,785.5,0.01737,785.5,0.00405,785.5,0.00283,785.5,0.00438,785.5,0.00588
784,0.12042,784,0.01745,784,0.00412,784,0.00286,784,0.00433,784,0.00584
782.5,0.12152,782.5,0.01774,782.5,0.00425,782.5,0.00289,782.5,0.00445,782.5,0.00598
781,0.12252,781,0.01797,781,0.00442,781,0.00284,781,0.00458,781,0.00607
779.5,0.12368,779.5,0.01827,779.5,0.00452,779.5,0.00315,779.5,0.00475,779.5,0.00621
778,0.12491,778,0.01862,778,0.00452,778,0.00319,778,0.00478,778,0.00634
776.5,0.12594,776.5,0.01892,776.5,0.00468,776.5,0.00332,776.5,0.00477,776.5,0.00636
775,0.12694,775,0.01904,775,0.00464,775,0.00333,775,0.00479,775,0.00619
773.5,0.12807,773.5,0.01915,773.5,0.00456,773.5,0.00323,773.5,0.00468,773.5,0.00631
772,0.1293,772,0.01935,772,0.00451,772,0.00321,772,0.0047,772,0.00619
770.5,0.13046,770.5,0.01936,770.5,0.0045,770.5,0.00309,770.5,0.00455,770.5,0.00616
769,0.1316,769,0.01963,769,0.00461,769,0.00307,769,0.00466,769,0.00627
767.5,0.13295,767.5,0.02004,767.5,0.00475,767.5,0.00306,767.5,0.00493,767.5,0.00629
766,0.13436,766,0.02042,766,0.00499,766,0.0033,766,0.00493,766,0.00629
764.5,0.13553,764.5,0.02064,764.5,0.00503,764.5,0.0033,764.5,0.00496,764.5,0.00645
763,0.13678,763,0.02099,763,0.00504,763,0.00336,763,0.005,763,0.00659
761.5,0.13796,761.5,0.02125,761.5,0.00512,761.5,0.0035,761.5,0.00501,761.5,0.00643
760,0.1392,760,0.02147,760,0.00505,760,0.00357,760,0.00497,760,0.00661
758.5,0.14049,758.5,0.02167,758.5,0.00506,758.5,0.00347,758.5,0.0049,758.5,0.00679
757,0.14181,757,0.02186,757,0.00507,757,0.00339,757,0.00482,757,0.00652
755.5,0.14306,755.5,0.02212,755.5,0.00515,755.5,0.00337,755.5,0.00491,755.5,0.00656
754,0.14456,754,0.02241,754,0.00523,754,0.00342,754,0.00509,754,0.00665
752.5,0.14597,752.5,0.02281,752.5,0.00537,752.5,0.00339,752.5,0.00513,752.5,0.00666
751,0.14752,751,0.02325,751,0.00555,751,0.00355,751,0.00529,751,0.00677
749.5,0.14891,749.5,0.02375,749.5,0.00565,749.5,0.00368,749.5,0.00538,749.5,0.00683
748,0.15037,748,0.02413,748,0.00579,748,0.00389,748,0.00539,748,0.00678
746.5,0.15175,746.5,0.02436,746.5,0.00569,746.5,0.00382,746.5,0.0053,746.5,0.00679
745,0.15335,745,0.02471,745,0.0058,745,0.00393,745,0.00543,745,0.00688
743.5,0.15478,743.5,0.02501,743.5,0.00579,743.5,0.00394,743.5,0.00538,743.5,0.00693
742,0.15625,742,0.02529,742,0.00576,742,0.00379,742,0.00533,742,0.00696
740.5,0.15788,740.5,0.02559,740.5,0.00587,740.5,0.00377,740.5,0.0054,740.5,0.00705
739,0.15945,739,0.02604,739,0.00603,739,0.0038,739,0.00552,739,0.00725
737.5,0.16119,737.5,0.02659,737.5,0.00622,737.5,0.00386,737.5,0.00567,737.5,0.00715
736,0.16282,736,0.0271,736,0.00636,736,0.00399,736,0.00573,736,0.0072
734.5,0.16457,734.5,0.02764,734.5,0.00646,734.5,0.00423,734.5,0.00583,734.5,0.00733
733,0.16623,733,0.02813,733,0.00667,733,0.00439,733,0.00593,733,0.00732
731.5,0.16795,731.5,0.02857,731.5,0.00672,731.5,0.00438,731.5,0.00593,731.5,0.00736
730,0.16971,730,0.029,730,0.0067,730,0.00443,730,0.00594,730,0.00737
728.5,0.17159,728.5,0.02943,728.5,0.00679,728.5,0.00448,728.5,0.00592,728.5,0.00743
727,0.17346,727,0.02981,727,0.0068,727,0.0043,727,0.00583,727,0.00754
725.5,0.17535,725.5,0.03033,725.5,0.00695,725.5,0.00434,725.5,0.00601,725.5,0.00756
724,0.17736,724,0.03105,724,0.00721,724,0.00445,724,0.00621,724,0.00768
722.5,0.17938,722.5,0.03168,722.5,0.00736,722.5,0.00454,722.5,0.00626,722.5,0.00779
721,0.18135,721,0.03232,721,0.0076,721,0.00468,721,0.00635,721,0.00796
719.5,0.1835,719.5,0.03305,719.5,0.00777,719.5,0.0049,719.5,0.00656,719.5,0.00802
718,0.18566,718,0.03383,718,0.00794,718,0.00514,718,0.00666,718,0.00813
716.5,0.18798,716.5,0.03458,716.5,0.00814,716.5,0.0053,716.5,0.00679,716.5,0.00813
715,0.19017,715,0.03515,715,0.00824,715,0.00527,715,0.0068,715,0.00823
713.5,0.19255,713.5,0.03601,713.5,0.00847,713.5,0.00538,713.5,0.00695,713.5,0.00824
712,0.19503,712,0.03681,712,0.00868,712,0.00537,712,0.00705,712,0.00831
710.5,0.19754,710.5,0.03768,710.5,0.00887,710.5,0.00547,710.5,0.0071,710.5,0.00843
709,0.20012,709,0.03881,709,0.0092,709,0.0056,709,0.00733,709,0.00868
707.5,0.2027,707.5,0.03986,707.5,0.00955,707.5,0.00584,707.5,0.00759,707.5,0.00884
706,0.20565,706,0.04112,706,0.01002,706,0.00614,706,0.00787,706,0.00906
704.5,0.20852,704.5,0.04242,704.5,0.01039,704.5,0.00654,704.5,0.00805,704.5,0.00925
703,0.21154,703,0.04377,703,0.01091,703,0.00688,703,0.00836,703,0.00941
701.5,0.21455,701.5,0.0452,701.5,0.0112,701.5,0.00707,701.5,0.00849,701.5,0.00962
700,0.2178,700,0.04671,700,0.0117,700,0.00724,700,0.00878,700,0.00974
698.5,0.22112,698.5,0.04836,698.5,0.01219,698.5,0.0076,698.5,0.00901,698.5,0.00981
697,0.22451,697,0.0501,697,0.01267,697,0.00777,697,0.00919,697,0.00996
695.5,0.2282,695.5,0.05217,695.5,0.01348,695.5,0.00812,695.5,0.00966,695.5,0.01021
694,0.23176,694,0.05434,694,0.01419,694,0.00848,694,0.00998,694,0.01052
692.5,0.2357,692.5,0.05699,692.5,0.01517,692.5,0.00914,692.5,0.01047,692.5,0.01084
691,0.23961,691,0.05981,691,0.01612,691,0.00986,691,0.01105,691,0.01128
689.5,0.24359,689.5,0.06286,689.5,0.01728,689.5,0.0105,689.5,0.0116,689.5,0.0117
688,0.24786,688,0.06623,688,0.01855,688,0.01128,688,0.01223,688,0.0122
686.5,0.25181,686.5,0.06985,686.5,0.01987,686.5,0.01205,686.5,0.01275,686.5,0.01257
685,0.2558,685,0.07376,685,0.02139,685,0.01279,685,0.01342,685,0.01301
683.5,0.2596,683.5,0.078,683.5,0.0231,683.5,0.01369,683.5,0.01413,683.5,0.01349
682,0.26293,682,0.08254,682,0.025,682,0.01461,682,0.01492,682,0.01391
680.5,0.26583,680.5,0.08722,680.5,0.02717,680.5,0.01575,680.5,0.01589,680.5,0.01447
679,0.26813,679,0.09187,679,0.02945,679,0.01704,679,0.01698,679,0.01501
677.5,0.26951,677.5,0.09638,677.5,0.03182,677.5,0.01844,677.5,0.01816,677.5,0.01581
676,0.26997,676,0.10052,676,0.03425,676,0.01993,676,0.01946,676,0.01661
674.5,0.26947,674.5,0.10399,674.5,0.03646,674.5,0.02141,674.5,0.02069,674.5,0.01754
673,0.26815,673,0.10664,673,0.0386,673,0.02298,673,0.02189,673,0.01843
671.5,0.26614,671.5,0.10861,671.5,0.04059,671.5,0.02444,671.5,0.02323,671.5,0.01943
670,0.26349,670,0.10988,670,0.04214,670,0.02574,670,0.02454,670,0.02047
668.5,0.26053,668.5,0.1103,668.5,0.04337,668.5,0.02701,668.5,0.02582,668.5,0.02141
667,0.2575,667,0.11032,667,0.04451,667,0.02835,667,0.02724,667,0.02226
665.5,0.25452,665.5,0.10984,665.5,0.04522,665.5,0.02953,665.5,0.02856,665.5,0.0234
664,0.25174,664,0.10909,664,0.04581,664,0.03059,664,0.02987,664,0.02421
662.5,0.24919,662.5,0.1081,662.5,0.046,662.5,0.03155,662.5,0.0311,662.5,0.02502
661,0.24697,661,0.10677,661,0.04591,661,0.0322,661,0.03207,661,0.02585
659.5,0.24501,659.5,0.10545,659.5,0.04564,659.5,0.03259,659.5,0.0329,659.5,0.02689
658,0.24358,658,0.10417,658,0.04516,658,0.03274,658,0.03348,658,0.02778
656.5,0.24252,656.5,0.103,656.5,0.04466,656.5,0.03271,656.5,0.03389,656.5,0.02855
655,0.24183,655,0.10193,655,0.04409,655,0.03252,655,0.03424,655,0.02944
653.5,0.24136,653.5,0.10103,653.5,0.0436,653.5,0.03218,653.5,0.03437,653.5,0.03001
652,0.24161,652,0.10056,652,0.04325,652,0.03204,652,0.03465,652,0.03043
650.5,0.24208,650.5,0.10041,650.5,0.04305,650.5,0.03202,650.5,0.03485,650.5,0.03093
649,0.24293,649,0.10032,649,0.04298,649,0.03197,649,0.03489,649,0.031
647.5,0.24398,647.5,0.10054,647.5,0.04299,647.5,0.03194,647.5,0.03498,647.5,0.03099
646,0.2453,646,0.10098,646,0.04304,646,0.032,646,0.03496,646,0.03097
644.5,0.24691,644.5,0.10167,644.5,0.04319,644.5,0.03217,644.5,0.03498,644.5,0.03103
643,0.24848,643,0.10237,643,0.04334,643,0.03227,643,0.03495,643,0.03121
641.5,0.25031,641.5,0.10329,641.5,0.04362,641.5,0.03241,641.5,0.035,641.5,0.03127
640,0.2522,640,0.10435,640,0.04399,640,0.03253,640,0.03509,640,0.03147
638.5,0.25427,638.5,0.10571,638.5,0.04455,638.5,0.03283,638.5,0.03541,638.5,0.03189
637,0.2562,637,0.1072,637,0.04516,637,0.03315,637,0.03577,637,0.03217
635.5,0.25832,635.5,0.10887,635.5,0.04599,635.5,0.03369,635.5,0.03634,635.5,0.03237
634,0.26029,634,0.11073,634,0.04689,634,0.03436,634,0.03697,634,0.03272
632.5,0.2625,632.5,0.11274,632.5,0.04791,632.5,0.03514,632.5,0.03769,632.5,0.03306
631,0.26456,631,0.11478,631,0.04891,631,0.03601,631,0.03844,631,0.03348
629.5,0.26641,629.5,0.11683,629.5,0.04996,629.5,0.03682,629.5,0.03915,629.5,0.03411
628,0.26836,628,0.11892,628,0.05095,628,0.0377,628,0.04002,628,0.03478
626.5,0.27012,626.5,0.12101,626.5,0.05206,626.5,0.03848,626.5,0.04085,626.5,0.03548
625,0.27188,625,0.1233,625,0.05337,625,0.03942,625,0.04179,625,0.03648
623.5,0.27345,623.5,0.12568,623.5,0.05464,623.5,0.04038,623.5,0.04282,623.5,0.03748
622,0.27482,622,0.12797,622,0.0561,622,0.0414,622,0.04395,622,0.03847
620.5,0.2761,620.5,0.13043,620.5,0.05749,620.5,0.04249,620.5,0.04521,620.5,0.03953
619,0.27699,619,0.13269,619,0.0589,619,0.04363,619,0.0465,619,0.04053
617.5,0.27764,617.5,0.13493,617.5,0.06039,617.5,0.04494,617.5,0.04772,617.5,0.04139
616,0.27792,616,0.13686,616,0.06174,616,0.04616,616,0.04898,616,0.04253
614.5,0.27787,614.5,0.13849,614.5,0.06297,614.5,0.04721,614.5,0.05006,614.5,0.04321
613,0.27757,613,0.13976,613,0.06409,613,0.04819,613,0.05109,613,0.04429
611.5,0.27678,611.5,0.14076,611.5,0.06504,611.5,0.04898,611.5,0.05204,611.5,0.04499
610,0.27562,610,0.14137,610,0.06578,610,0.04956,610,0.05288,610,0.04591
608.5,0.27427,608.5,0.14161,608.5,0.06632,608.5,0.05001,608.5,0.05351,608.5,0.04667
607,0.27262,607,0.14143,607,0.06666,607,0.05036,607,0.05406,607,0.0474
605.5,0.27077,605.5,0.14107,605.5,0.06691,605.5,0.05077,605.5,0.05456,605.5,0.04799
604,0.26876,604,0.14031,604,0.06693,604,0.05092,604,0.05485,604,0.04824
602.5,0.26691,602.5,0.13939,602.5,0.06666,602.5,0.05087,602.5,0.05492,602.5,0.04843
601,0.2651,601,0.13831,601,0.06634,601,0.05079,601,0.05477,601,0.0486
599.5,0.26348,599.5,0.13701,599.5,0.06575,599.5,0.05044,599.5,0.05455,599.5,0.04834
598,0.26198,598,0.13565,598,0.06511,598,0.04994,598,0.05401,598,0.0482
596.5,0.26099,596.5,0.1345,596.5,0.06444,596.5,0.04947,596.5,0.05367,596.5,0.04782
595,0.26012,595,0.13339,595,0.06379,595,0.04888,595,0.05316,595,0.04748
593.5,0.25969,593.5,0.13242,593.5,0.06311,593.5,0.04832,593.5,0.05258,593.5,0.04727
592,0.2595,592,0.13163,592,0.06252,592,0.04788,592,0.05215,592,0.04707
590.5,0.25974,590.5,0.13122,590.5,0.0621,590.5,0.04764,590.5,0.05182,590.5,0.04681
589,0.26024,589,0.13088,589,0.06183,589,0.04729,589,0.05141,589,0.04646
587.5,0.26079,587.5,0.13071,587.5,0.06146,587.5,0.04699,587.5,0.05104,587.5,0.04633
586,0.26137,586,0.13057,586,0.06113,586,0.04657,586,0.05056,586,0.04585
584.5,0.26232,584.5,0.13066,584.5,0.06088,584.5,0.04629,584.5,0.05032,584.5,0.04551
583,0.26329,583,0.13075,583,0.06054,583,0.04591,583,0.04988,583,0.04515
581.5,0.26423,581.5,0.13093,581.5,0.06029,581.5,0.04562,581.5,0.04964,581.5,0.04515
580,0.26539,580,0.13135,580,0.06016,580,0.04538,580,0.0495,580,0.0448
578.5,0.26667,578.5,0.13196,578.5,0.06013,578.5,0.04525,578.5,0.04941,578.5,0.04466
577,0.26809,577,0.13261,577,0.06017,577,0.04527,577,0.04928,577,0.0447
575.5,0.26928,575.5,0.13334,575.5,0.06031,575.5,0.04522,575.5,0.04912,575.5,0.04464
574,0.27064,574,0.13419,574,0.06043,574,0.04519,574,0.04905,574,0.04469
572.5,0.27208,572.5,0.13513,572.5,0.06065,572.5,0.04524,572.5,0.04911,572.5,0.04478
571,0.27341,571,0.13607,571,0.0609,571,0.04529,571,0.04908,571,0.04485
569.5,0.27476,569.5,0.13677,569.5,0.06088,569.5,0.04508,569.5,0.04901,569.5,0.04464
568,0.27616,568,0.13779,568,0.06116,568,0.04514,568,0.04896,568,0.04467
566.5,0.27755,566.5,0.13903,566.5,0.06145,566.5,0.04526,566.5,0.04905,566.5,0.04477
565,0.27908,565,0.14025,565,0.06175,565,0.04546,565,0.04926,565,0.04495
563.5,0.28052,563.5,0.14143,563.5,0.0622,563.5,0.04553,563.5,0.04939,563.5,0.04512
562,0.28192,562,0.1424,562,0.06238,562,0.04546,562,0.0495,562,0.04524
560.5,0.28346,560.5,0.14372,560.5,0.0628,560.5,0.04562,560.5,0.04966,560.5,0.04545
559,0.28501,559,0.14497,559,0.06315,559,0.04571,559,0.04981,559,0.04552
557.5,0.28664,557.5,0.14644,557.5,0.06368,557.5,0.04594,557.5,0.05007,557.5,0.04567
556,0.2882,556,0.14775,556,0.06415,556,0.04605,556,0.05012,556,0.04584
554.5,0.28984,554.5,0.14924,554.5,0.06468,554.5,0.04625,554.5,0.05023,554.5,0.04598
553,0.29149,553,0.15097,553,0.06526,553,0.04668,553,0.05047,553,0.04615
551.5,0.29324,551.5,0.15266,551.5,0.06586,551.5,0.04704,551.5,0.05077,551.5,0.04641
550,0.29503,550,0.15436,550,0.06659,550,0.04745,550,0.05116,550,0.04674
548.5,0.29661,548.5,0.15604,548.5,0.06718,548.5,0.04771,548.5,0.05148,548.5,0.04703
547,0.29824,547,0.15775,547,0.06782,547,0.04795,547,0.05189,547,0.04714
545.5,0.30002,545.5,0.15947,545.5,0.0685,545.5,0.04822,545.5,0.05225,545.5,0.04738
544,0.30181,544,0.16122,544,0.06909,544,0.04843,544,0.05258,544,0.04779
542.5,0.30365,542.5,0.16307,542.5,0.06996,542.5,0.04883,542.5,0.05285,542.5,0.04798
541,0.30542,541,0.16502,541,0.07074,541,0.04928,541,0.0532,541,0.04853
539.5,0.30733,539.5,0.16712,539.5,0.07168,539.5,0.04981,539.5,0.05364,539.5,0.04891
538,0.30921,538,0.16941,538,0.07272,538,0.05041,538,0.05407,538,0.04926
536.5,0.31107,536.5,0.17172,536.5,0.07358,536.5,0.051,536.5,0.05459,536.5,0.04965
535,0.31301,535,0.17405,535,0.07458,535,0.05157,535,0.05515,535,0.05006
533.5,0.31498,533.5,0.17638,533.5,0.07555,533.5,0.052,533.5,0.05575,533.5,0.05047
532,0.31697,532,0.1788,532,0.0766,532,0.05255,532,0.05639,532,0.05078
530.5,0.31895,530.5,0.18121,530.5,0.07772,530.5,0.05305,530.5,0.05698,530.5,0.05128
529,0.321,529,0.18361,529,0.07877,529,0.05361,529,0.05756,529,0.05191
527.5,0.32314,527.5,0.18623,527.5,0.08005,527.5,0.05423,527.5,0.05812,527.5,0.05237
526,0.32526,526,0.18893,526,0.08142,526,0.05496,526,0.05868,526,0.05304
524.5,0.32713,524.5,0.1916,524.5,0.08267,524.5,0.05564,524.5,0.05918,524.5,0.05366
523,0.32926,523,0.19463,523,0.08413,523,0.05649,523,0.05993,523,0.05419
521.5,0.33148,521.5,0.19777,521.5,0.08565,521.5,0.0574,521.5,0.06083,521.5,0.05492
520,0.33355,520,0.20088,520,0.08713,520,0.05822,520,0.06169,520,0.05552
518.5,0.33576,518.5,0.20412,518.5,0.08878,518.5,0.05916,518.5,0.06259,518.5,0.05608
517,0.33792,517,0.20735,517,0.09043,517,0.06002,517,0.06349,517,0.05679
515.5,0.34028,515.5,0.21073,515.5,0.09222,515.5,0.06094,515.5,0.06453,515.5,0.05737
514,0.34247,514,0.21408,514,0.09415,514,0.06193,514,0.06546,514,0.05803
512.5,0.34466,512.5,0.21751,512.5,0.0961,512.5,0.06295,512.5,0.06623,512.5,0.05892
511,0.34681,511,0.22107,511,0.09812,511,0.06412,511,0.06723,511,0.05991
509.5,0.34917,509.5,0.22498,509.5,0.10045,509.5,0.06546,509.5,0.0684,509.5,0.06093
508,0.35125,508,0.22897,508,0.10277,508,0.06673,508,0.0695,508,0.06188
506.5,0.35341,506.5,0.23301,506.5,0.10522,506.5,0.0682,506.5,0.07081,506.5,0.06297
505,0.35563,505,0.23707,505,0.10766,505,0.06965,505,0.07223,505,0.06398
503.5,0.35774,503.5,0.2412,503.5,0.11027,503.5,0.07111,503.5,0.07372,503.5,0.06485
502,0.35986,502,0.24534,502,0.11303,502,0.07261,502,0.07515,502,0.06589
500.5,0.36193,500.5,0.24949,500.5,0.11588,500.5,0.07428,500.5,0.07674,500.5,0.06697
499,0.3638,499,0.25367,499,0.11887,499,0.07603,499,0.07817,499,0.06818
497.5,0.36572,497.5,0.25789,497.5,0.122,497.5,0.07787,497.5,0.07976,497.5,0.0695
496,0.36764,496,0.2623,496,0.12538,496,0.07997,496,0.08153,496,0.07087
494.5,0.36932,494.5,0.26671,494.5,0.12885,494.5,0.08222,494.5,0.08341,494.5,0.07234
493,0.37097,493,0.27114,493,0.13247,493,0.08451,493,0.0854,493,0.07388
491.5,0.3725,491.5,0.27558,491.5,0.13606,491.5,0.08684,491.5,0.08768,491.5,0.07559
490,0.37387,490,0.27984,490,0.13981,490,0.0893,490,0.09,490,0.07714
488.5,0.37497,488.5,0.28383,488.5,0.1435,488.5,0.09177,488.5,0.09228,488.5,0.0789
487,0.37599,487,0.28775,487,0.14718,487,0.09428,487,0.09465,487,0.08053
485.5,0.37717,485.5,0.29159,485.5,0.15114,485.5,0.09706,485.5,0.09713,485.5,0.0824
484,0.37802,484,0.29515,484,0.15501,484,0.09991,484,0.09962,484,0.08421
482.5,0.37887,482.5,0.29871,482.5,0.15899,482.5,0.10291,482.5,0.10231,482.5,0.08622
481,0.37948,481,0.30225,481,0.16292,481,0.10602,481,0.105,481,0.08825
479.5,0.38019,479.5,0.30582,479.5,0.16708,479.5,0.1094,479.5,0.10814,479.5,0.09057
478,0.38085,478,0.30928,478,0.1711,478,0.1127,478,0.11136,478,0.09301
476.5,0.38136,476.5,0.31245,476.5,0.17519,476.5,0.11617,476.5,0.11458,476.5,0.09551
475,0.3817,475,0.31558,475,0.17903,475,0.11957,475,0.11789,475,0.09805
473.5,0.38216,473.5,0.31861,473.5,0.18313,473.5,0.12317,473.5,0.12147,473.5,0.10077
472,0.38252,472,0.32146,472,0.18714,472,0.12674,472,0.12507,472,0.10357
470.5,0.38276,470.5,0.32417,470.5,0.19122,470.5,0.13047,470.5,0.12874,470.5,0.10613
469,0.38293,469,0.3269,469,0.19529,469,0.13436,469,0.13244,469,0.10902
467.5,0.38305,467.5,0.3295,467.5,0.1994,467.5,0.13841,467.5,0.13628,467.5,0.11209
466,0.38311,466,0.33212,466,0.2036,466,0.14267,466,0.14049,466,0.11523
464.5,0.38291,464.5,0.33442,464.5,0.20764,464.5,0.14684,464.5,0.14458,464.5,0.11863
463,0.38261,463,0.33664,463,0.21156,463,0.15116,463,0.1489,463,0.12215
461.5,0.38224,461.5,0.33861,461.5,0.21528,461.5,0.15543,461.5,0.15342,461.5,0.12567
460,0.38169,460,0.34016,460,0.21892,460,0.15969,460,0.15792,460,0.12942
458.5,0.381,458.5,0.34145,458.5,0.22236,458.5,0.16394,458.5,0.16245,458.5,0.13312
457,0.38021,457,0.34249,457,0.22577,457,0.16822,457,0.16709,457,0.13693
455.5,0.37915,455.5,0.34338,455.5,0.22902,455.5,0.17254,455.5,0.17173,455.5,0.14076
454,0.37806,454,0.34408,454,0.2321,454,0.17693,454,0.17656,454,0.14476
452.5,0.37688,452.5,0.34444,452.5,0.23488,452.5,0.18137,452.5,0.18128,452.5,0.14862
451,0.37556,451,0.34477,451,0.23755,451,0.18562,451,0.18612,451,0.15282
449.5,0.37413,449.5,0.34464,449.5,0.23983,449.5,0.1898,449.5,0.19092,449.5,0.1571
448,0.37261,448,0.34448,448,0.24191,448,0.19374,448,0.1958,448,0.16139
446.5,0.37093,446.5,0.34384,446.5,0.24351,446.5,0.19733,446.5,0.20041,446.5,0.16583
445,0.36925,445,0.34311,445,0.2449,445,0.2008,445,0.20507,445,0.17021
443.5,0.3674,443.5,0.34201,443.5,0.24581,443.5,0.20381,443.5,0.20928,443.5,0.17444
442,0.3659,442,0.34089,442,0.24679,442,0.20665,442,0.21348,442,0.17863
440.5,0.3644,440.5,0.33991,440.5,0.24773,440.5,0.20953,440.5,0.21757,440.5,0.18267
439,0.36283,439,0.33887,439,0.24833,439,0.21208,439,0.22129,439,0.18659
437.5,0.36146,437.5,0.33792,437.5,0.24891,437.5,0.21452,437.5,0.22488,437.5,0.19058
436,0.3603,436,0.33719,436,0.24957,436,0.21684,436,0.22842,436,0.1943
434.5,0.35905,434.5,0.33642,434.5,0.2501,434.5,0.21899,434.5,0.23178,434.5,0.19805
433,0.35794,433,0.33573,433,0.25049,433,0.22081,433,0.23488,433,0.20156
431.5,0.35688,431.5,0.33505,431.5,0.2508,431.5,0.22261,431.5,0.2378,431.5,0.20503
430,0.35593,430,0.33445,430,0.25112,430,0.224,430,0.24047,430,0.20826
428.5,0.35518,428.5,0.33375,428.5,0.25153,428.5,0.22542,428.5,0.24296,428.5,0.21134
427,0.35439,427,0.33326,427,0.25183,427,0.22668,427,0.2452,427,0.21426
425.5,0.35382,425.5,0.33286,425.5,0.25237,425.5,0.22804,425.5,0.24723,425.5,0.21692
424,0.35324,424,0.33266,424,0.25317,424,0.22956,424,0.24935,424,0.21906
422.5,0.35275,422.5,0.33269,422.5,0.25395,422.5,0.23093,422.5,0.2512,422.5,0.2213
421,0.35209,421,0.33257,421,0.25468,421,0.23238,421,0.25294,421,0.22314
419.5,0.35162,419.5,0.33263,419.5,0.25537,419.5,0.2338,419.5,0.25473,419.5,0.22483
418,0.35106,418,0.33265,418,0.25613,418,0.23505,418,0.25627,418,0.22661
416.5,0.35041,416.5,0.33255,416.5,0.25675,416.5,0.23632,416.5,0.25793,416.5,0.2283
415,0.34998,415,0.33242,415,0.25762,415,0.23761,415,0.2595,415,0.23
413.5,0.34928,413.5,0.33228,413.5,0.25833,413.5,0.23886,413.5,0.26102,413.5,0.23156
412,0.34882,412,0.33213,412,0.25915,412,0.24037,412,0.26258,412,0.23311
410.5,0.34806,410.5,0.33193,410.5,0.25993,410.5,0.24169,410.5,0.26403,410.5,0.23454
409,0.34745,409,0.33183,409,0.26093,409,0.24336,409,0.26564,409,0.23586
407.5,0.34655,407.5,0.33155,407.5,0.26164,407.5,0.24486,407.5,0.26706,407.5,0.23716
406,0.34575,406,0.33135,406,0.2625,406,0.24643,406,0.26878,406,0.23835
404.5,0.34479,404.5,0.33091,404.5,0.26308,404.5,0.24797,404.5,0.27036,404.5,0.23938
403,0.34372,403,0.33035,403,0.26365,403,0.24933,403,0.27192,403,0.2405
401.5,0.34253,401.5,0.32949,401.5,0.26377,401.5,0.25053,401.5,0.27326,401.5,0.24163
400,0.34121,400,0.32843,400,0.26375,400,0.25146,400,0.27456,400,0.24263
398.5,0.33969,398.5,0.32709,398.5,0.26367,398.5,0.2522,398.5,0.27547,398.5,0.24348
397,0.33833,397,0.32583,397,0.26358,397,0.25296,397,0.27649,397,0.24446
395.5,0.33683,395.5,0.32414,395.5,0.26292,395.5,0.25342,395.5,0.277,395.5,0.24503
394,0.33505,394,0.32258,394,0.26245,394,0.25392,394,0.2775,394,0.24543
392.5,0.33302,392.5,0.32069,392.5,0.2616,392.5,0.25399,392.5,0.27773,392.5,0.24553
391,0.33106,391,0.31864,391,0.26059,391,0.254,391,0.27766,391,0.24545
389.5,0.32895,389.5,0.31633,389.5,0.25921,389.5,0.25336,389.5,0.27742,389.5,0.24495
388,0.32658,388,0.31364,388,0.25749,388,0.2525,388,0.27665,388,0.2443
386.5,0.32416,386.5,0.31084,386.5,0.25543,386.5,0.25113,386.5,0.27561,386.5,0.24333
385,0.32148,385,0.30745,385,0.25298,385,0.24944,385,0.27382,385,0.24196
383.5,0.31884,383.5,0.30427,383.5,0.25042,383.5,0.24741,383.5,0.27195,383.5,0.24045
382,0.3163,382,0.3009,382,0.24768,382,0.24517,382,0.26971,382,0.23876
380.5,0.3136,380.5,0.29764,380.5,0.24497,380.5,0.24281,380.5,0.26703,380.5,0.23644
379,0.31076,379,0.29423,379,0.24206,379,0.24017,379,0.26413,379,0.23389
377.5,0.30809,377.5,0.29105,377.5,0.23923,377.5,0.23746,377.5,0.26104,377.5,0.23132
376,0.30537,376,0.28778,376,0.23624,376,0.23461,376,0.25788,376,0.22835
374.5,0.30269,374.5,0.28434,374.5,0.23322,374.5,0.23142,374.5,0.25449,374.5,0.22518
373,0.30013,373,0.28107,373,0.23009,373,0.22826,373,0.25095,373,0.22195
371.5,0.29767,371.5,0.27763,371.5,0.22693,371.5,0.22492,371.5,0.24727,371.5,0.21858
370,0.29511,370,0.27421,370,0.22365,370,0.22134,370,0.24339,370,0.2154
368.5,0.29256,368.5,0.27093,368.5,0.22047,368.5,0.21791,368.5,0.23959,368.5,0.21188
367,0.29022,367,0.26778,367,0.2175,367,0.21449,367,0.23565,367,0.20845
365.5,0.28782,365.5,0.26482,365.5,0.21441,365.5,0.21138,365.5,0.23186,365.5,0.20507
364,0.28557,364,0.26206,364,0.21168,364,0.20815,364,0.22804,364,0.20173
362.5,0.28365,362.5,0.2594,362.5,0.20909,362.5,0.20504,362.5,0.22457,362.5,0.19842
361,0.28155,361,0.25695,361,0.20647,361,0.20219,361,0.22117,361,0.19504
359.5,0.27984,359.5,0.25436,359.5,0.20389,359.5,0.19922,359.5,0.21774,359.5,0.19215
358,0.27829,358,0.25213,358,0.20142,358,0.19628,358,0.21445,358,0.1893
356.5,0.27716,356.5,0.25029,356.5,0.19943,356.5,0.19374,356.5,0.21162,356.5,0.18668
355,0.27586,355,0.24832,355,0.1973,355,0.19121,355,0.20862,355,0.18419
353.5,0.2749,353.5,0.247,353.5,0.19564,353.5,0.189,353.5,0.20601,353.5,0.18177
352,0.27427,352,0.24594,352,0.19432,352,0.18714,352,0.20385,352,0.1799
350.5,0.27411,350.5,0.24534,350.5,0.19351,350.5,0.18586,350.5,0.202,350.5,0.17823
349,0.27284,349,0.24282,349,0.19264,349,0.18332,349,0.19796,349,0.17894
347.5,0.27369,347.5,0.24515,347.5,0.19251,347.5,0.18347,347.5,0.19916,347.5,0.17581
346,0.27523,346,0.24637,346,0.19278,346,0.184,346,0.19923,346,0.17463
344.5,0.27544,344.5,0.24679,344.5,0.19338,344.5,0.18378,344.5,0.19847,344.5,0.17435
343,0.27667,343,0.24765,343,0.19385,343,0.18375,343,0.1982,343,0.17387
341.5,0.27758,341.5,0.24913,341.5,0.19515,341.5,0.18453,341.5,0.19887,341.5,0.17432
340,0.2784,340,0.25014,340,0.19603,340,0.18529,340,0.19932,340,0.17478
338.5,0.2793,338.5,0.25165,338.5,0.19774,338.5,0.18698,338.5,0.20092,338.5,0.17549
337,0.28001,337,0.25287,337,0.19932,337,0.18865,337,0.20245,337,0.17618
335.5,0.28064,335.5,0.25395,335.5,0.20003,335.5,0.18991,335.5,0.20362,335.5,0.17723
334,0.28103,334,0.25429,334,0.20103,334,0.19141,334,0.20487,334,0.1788
332.5,0.28176,332.5,0.25519,332.5,0.20239,332.5,0.19271,332.5,0.2069,332.5,0.17987
331,0.28205,331,0.25629,331,0.20357,331,0.19433,331,0.20882,331,0.18177
329.5,0.28263,329.5,0.25754,329.5,0.20455,329.5,0.19583,329.5,0.21043,329.5,0.18344
328,0.28315,328,0.25831,328,0.20576,328,0.19751,328,0.21217,328,0.18492
326.5,0.28375,326.5,0.25926,326.5,0.20724,326.5,0.19943,326.5,0.21457,326.5,0.18637
325,0.28437,325,0.26031,325,0.20894,325,0.20141,325,0.21697,325,0.18872
323.5,0.28443,323.5,0.26118,323.5,0.20965,323.5,0.20305,323.5,0.21911,323.5,0.19062
322,0.28501,322,0.26215,322,0.2111,322,0.20522,322,0.22176,322,0.19295
320.5,0.28535,320.5,0.26219,320.5,0.2122,320.5,0.20691,320.5,0.22397,320.5,0.19537
319,0.28557,319,0.26318,319,0.21359,319,0.20886,319,0.22693,319,0.19859
317.5,0.28601,317.5,0.26427,317.5,0.21462,317.5,0.21109,317.5,0.23018,317.5,0.20175
316,0.28618,316,0.26467,316,0.216,316,0.21342,316,0.2336,316,0.20573
314.5,0.28678,314.5,0.26596,314.5,0.21758,314.5,0.21618,314.5,0.23733,314.5,0.21034
313,0.28712,313,0.26685,313,0.21909,313,0.21853,313,0.24119,313,0.21464
311.5,0.28753,311.5,0.26833,311.5,0.22083,311.5,0.2217,311.5,0.24525,311.5,0.21912
310,0.28809,310,0.26896,310,0.22209,310,0.22378,310,0.24879,310,0.22326
308.5,0.28894,308.5,0.27018,308.5,0.22394,308.5,0.22646,308.5,0.253,308.5,0.22751
307,0.28938,307,0.27092,307,0.22512,307,0.22874,307,0.25635,307,0.23178
305.5,0.29031,305.5,0.27199,305.5,0.22677,305.5,0.23118,305.5,0.26011,305.5,0.23606
304,0.29103,304,0.27318,304,0.22838,304,0.23347,304,0.26343,304,0.23964
302.5,0.2919,302.5,0.27406,302.5,0.2298,302.5,0.23589,302.5,0.26662,302.5,0.24352
301,0.29253,301,0.27547,301,0.23124,301,0.23802,301,0.26973,301,0.24694
299.5,0.29318,299.5,0.27665,299.5,0.23283,299.5,0.2404,299.5,0.27273,299.5,0.25018
298,0.29396,298,0.27773,298,0.23417,298,0.24254,298,0.27522,298,0.25346
296.5,0.2948,296.5,0.27888,296.5,0.2359,296.5,0.24491,296.5,0.27792,296.5,0.25597
295,0.29561,295,0.28009,295,0.23742,295,0.24676,295,0.28058,295,0.25839
293.5,0.29651,293.5,0.28093,293.5,0.23901,293.5,0.24871,293.5,0.28266,293.5,0.26063
292,0.29698,292,0.28179,292,0.24021,292,0.25055,292,0.28466,292,0.2622
290.5,0.29809,290.5,0.28282,290.5,0.24177,290.5,0.25245,290.5,0.28667,290.5,0.26409
289,0.29875,289,0.28373,289,0.24327,289,0.254,289,0.28831,289,0.26529
287.5,0.29941,287.5,0.2849,287.5,0.24423,287.5,0.25594,287.5,0.29017,287.5,0.26691
286,0.30025,286,0.28595,286,0.24599,286,0.25803,286,0.29194,286,0.26817
284.5,0.30083,284.5,0.28707,284.5,0.24774,284.5,0.26017,284.5,0.29435,284.5,0.2698
283,0.30188,283,0.28864,283,0.24953,283,0.26279,283,0.29687,283,0.27158
281.5,0.30229,281.5,0.28943,281.5,0.25091,281.5,0.26487,281.5,0.29887,281.5,0.27332
280,0.3029,280,0.29032,280,0.25221,280,0.26718,280,0.30129,280,0.27509
278.5,0.30334,278.5,0.29083,278.5,0.25366,278.5,0.26926,278.5,0.30358,278.5,0.27675
277,0.30366,277,0.29131,277,0.25472,277,0.27131,277,0.30582,277,0.2785
275.5,0.30352,275.5,0.29139,275.5,0.25535,275.5,0.27294,275.5,0.30789,275.5,0.28014
274,0.30334,274,0.2911,274,0.2556,274,0.27422,274,0.30955,274,0.28162
272.5,0.30306,272.5,0.29076,272.5,0.25619,272.5,0.27617,272.5,0.31176,272.5,0.28326
271,0.30233,271,0.29026,271,0.25647,271,0.27735,271,0.3135,271,0.28506
269.5,0.30137,269.5,0.28975,269.5,0.25644,269.5,0.27828,269.5,0.31516,269.5,0.2869
268,0.30051,268,0.2888,268,0.25624,268,0.27922,268,0.31642,268,0.28879
266.5,0.29984,266.5,0.2879,266.5,0.25596,266.5,0.28025,266.5,0.31792,266.5,0.29022
265,0.29868,265,0.2869,265,0.2554,265,0.28057,265,0.31944,265,0.29167
263.5,0.29779,263.5,0.2858,263.5,0.25481,263.5,0.28108,263.5,0.32045,263.5,0.29294
262,0.2966,262,0.28427,262,0.25391,262,0.28122,262,0.32114,262,0.29402
260.5,0.29558,260.5,0.28265,260.5,0.25275,260.5,0.2809,260.5,0.32155,260.5,0.29495
259,0.29417,259,0.28087,259,0.25158,259,0.28043,259,0.32179,259,0.2955
257.5,0.29283,257.5,0.27901,257.5,0.25005,257.5,0.2798,257.5,0.3218,257.5,0.2961
256,0.29107,256,0.27701,256,0.24822,256,0.27893,256,0.32122,256,0.29643
254.5,0.28969,254.5,0.27505,254.5,0.24669,254.5,0.27801,254.5,0.32092,254.5,0.29648
253,0.2879,253,0.2729,253,0.24469,253,0.27651,253,0.32005,253,0.29614
251.5,0.28614,251.5,0.2707,251.5,0.24286,251.5,0.27501,251.5,0.31903,251.5,0.29584
250,0.28468,250,0.26867,250,0.24059,250,0.27328,250,0.31768,250,0.29537
248.5,0.28312,248.5,0.26632,248.5,0.23848,248.5,0.27136,248.5,0.31609,248.5,0.29449
247,0.28157,247,0.26411,247,0.2364,247,0.26917,247,0.31433,247,0.2935
245.5,0.28025,245.5,0.26217,245.5,0.23421,245.5,0.26721,245.5,0.31272,245.5,0.29278
244,0.27907,244,0.26041,244,0.23234,244,0.26537,244,0.31106,244,0.29169
242.5,0.27805,242.5,0.25876,242.5,0.2307,242.5,0.2637,242.5,0.3096,242.5,0.29097
241,0.27695,241,0.25733,241,0.22905,241,0.26218,241,0.30826,241,0.29033
239.5,0.27605,239.5,0.25621,239.5,0.22795,239.5,0.26095,239.5,0.30735,239.5,0.2899
238,0.27543,238,0.25523,238,0.22693,238,0.26002,238,0.30666,238,0.28942
236.5,0.27474,236.5,0.25419,236.5,0.2259,236.5,0.25894,236.5,0.30593,236.5,0.28916
235,0.27447,235,0.25345,235,0.22495,235,0.25806,235,0.30555,235,0.289
233.5,0.27379,233.5,0.25248,233.5,0.22414,233.5,0.25724,233.5,0.30515,233.5,0.28904
232,0.27334,232,0.25148,232,0.22314,232,0.25648,232,0.30464,232,0.28901
230.5,0.27294,230.5,0.25058,230.5,0.2224,230.5,0.25611,230.5,0.30445,230.5,0.28903
229,0.2721,229,0.24957,229,0.22131,229,0.25549,229,0.30412,229,0.28924
227.5,0.27143,227.5,0.24891,227.5,0.22076,227.5,0.25511,227.5,0.30451,227.5,0.28937
226,0.27052,226,0.24768,226,0.21965,226,0.25447,226,0.30449,226,0.28994
224.5,0.26985,224.5,0.24693,224.5,0.21901,224.5,0.25428,224.5,0.30483,224.5,0.29019
223,0.26905,223,0.24612,223,0.21832,223,0.25415,223,0.30552,223,0.29079
221.5,0.26846,221.5,0.24528,221.5,0.21768,221.5,0.25409,221.5,0.30621,221.5,0.29159
220,0.26803,220,0.24436,220,0.21681,220,0.25366,220,0.30684,220,0.29278
218.5,0.26757,218.5,0.24347,218.5,0.21588,218.5,0.25311,218.5,0.30738,218.5,0.29361
217,0.26763,217,0.24314,217,0.2156,217,0.25312,217,0.30848,217,0.29518
215.5,0.26765,215.5,0.24263,215.5,0.21486,215.5,0.25308,215.5,0.30931,215.5,0.29672
214,0.26719,214,0.24221,214,0.21441,214,0.25289,214,0.30993,214,0.29813
212.5,0.26719,212.5,0.24192,212.5,0.21378,212.5,0.25288,212.5,0.3105,212.5,0.29916
211,0.26666,211,0.24133,211,0.21311,211,0.25231,211,0.31093,211,0.29959
209.5,0.26671,209.5,0.24047,209.5,0.21217,209.5,0.2519,209.5,0.31096,209.5,0.30035
208,0.26571,208,0.23916,208,0.21066,208,0.25085,208,0.31073,208,0.30013
206.5,0.26485,206.5,0.23756,206.5,0.20899,206.5,0.24924,206.5,0.30956,206.5,0.30018
205,0.26391,205,0.23514,205,0.20654,205,0.24747,205,0.30813,205,0.29961
203.5,0.26195,203.5,0.23254,203.5,0.20333,203.5,0.24479,203.5,0.30637,203.5,0.29899
202,0.26075,202,0.22998,202,0.2001,202,0.24191,202,0.30434,202,0.29813
200.5,0.25873,200.5,0.22712,200.5,0.19736,200.5,0.2394,200.5,0.30281,200.5,0.29752
200,0.25808,200,0.22657,200,0.19684,200,0.23856,200,0.30274,200,0.29737